temp_h,temp_p,humidity,pressure,pitch,roll,yaw,mag_x,mag_y,mag_z,accel_x,accel_y,accel_z,gyro_x,gyro_y,gyro_z,timestamp
30.273740768432617,0,32.994895935058594,0,0.028367363108436454,357.60128814958006,145.61216087771984,-12.081015586853027,-8.608464241027832,8.015645980834961,-0.002715192036703229,-0.04293820634484291,0.9728378057479858,['x'],['y'],['z'],2020-03-27 17:33:48.640004
30.19748306274414,29.441665649414062,32.81468200683594,896.033935546875,0.9392387361189056,357.14204757412955,146.43290372914527,-24.544336318969727,-16.922773361206055,16.786590576171875,-0.002715192036703229,-0.0424557588994503,0.9701571464538574,['x'],['y'],['z'],2020-03-27 17:33:48.697483
30.19748306274414,29.447917938232422,32.81468200683594,896.037109375,0.8828153437982237,357.1859415713872,146.4162927090838,-30.07533073425293,-20.490415573120117,20.115427017211914,-0.0037025348283350468,-0.04366188496351242,0.967476487159729,['x'],['y'],['z'],2020-03-27 17:33:48.750193
30.292804718017578,29.452083587646484,33.47212219238281,896.039306640625,0.8335202677326549,357.21934012921156,146.4195711998854,-32.28916549682617,-22.188030242919922,21.563922882080078,-0.0037025348283350468,-0.04366188496351242,0.9667453765869141,['x'],['y'],['z'],2020-03-27 17:33:48.809576
30.330936431884766,29.452083587646484,31.846878051757812,896.041259765625,0.7886021156254478,357.2444269871462,146.40510485922331,-32.755489349365234,-22.66854476928711,22.17190170288086,-0.0034556991886347532,-0.041973307728767395,0.9679639339447021,['x'],['y'],['z'],2020-03-27 17:33:48.867278
30.330936431884766,29.456249237060547,31.846878051757812,896.04443359375,0.7397899552785402,357.2697701906181,146.37389089471637,-33.01688766479492,-23.036449432373047,22.717437744140625,-0.0029620276764035225,-0.042696982622146606,0.9691823720932007,['x'],['y'],['z'],2020-03-27 17:33:48.927137
30.350000381469727,29.452083587646484,32.200626373291016,896.052734375,0.6935014964690993,357.2916212464334,146.34103768480858,-33.28478240966797,-23.188695907592773,22.814193725585938,-0.003208863316103816,-0.044144339859485626,0.9684512615203857,['x'],['y'],['z'],2020-03-27 17:33:48.984556
30.311870574951172,29.462499618530273,32.85806655883789,896.05322265625,0.6563302196237147,357.31328468549003,146.3110668147306,-33.310611724853516,-23.341228485107422,22.75399398803711,-0.0037025348283350468,-0.043420661240816116,0.9691823720932007,['x'],['y'],['z'],2020-03-27 17:33:49.038447
30.311870574951172,29.464584350585938,32.85806655883789,896.058349609375,0.6202535339536777,357.3297663588441,146.27078235900584,-33.380455017089844,-23.48056983947754,22.671350479125977,-0.0034556991886347532,-0.042696982622146606,0.972594141960144,['x'],['y'],['z'],2020-03-27 17:33:49.094731
30.369064331054688,29.464584350585938,34.1562614440918,896.059326171875,0.5887719647694724,357.34078580185286,146.2238043178945,-33.09812927246094,-23.569982528686523,22.740991592407227,-0.002715192036703229,-0.04366188496351242,0.972594141960144,['x'],['y'],['z'],2020-03-27 17:33:49.159501
30.273740768432617,29.462499618530273,31.957006454467773,896.068603515625,0.5569933890780773,357.3662641150043,146.1610758605571,-33.418357849121094,-23.61960792541504,22.477962493896484,-0.0034556991886347532,-0.04317943751811981,0.973325252532959,['x'],['y'],['z'],2020-03-27 17:33:49.246224
30.254676818847656,29.46666717529297,33.23183822631836,896.077392578125,0.5305448155385252,357.382348356726,146.10990408329536,-33.1369743347168,-23.60674476623535,22.68660545349121,-0.0029620276764035225,-0.043420661240816116,0.9735689163208008,['x'],['y'],['z'],2020-03-27 17:33:49.322464
30.330936431884766,29.460416793823242,32.424224853515625,896.081298828125,0.5058643004986544,357.39663412426194,146.05821321165672,-33.54970932006836,-23.62827491760254,22.851970672607422,-0.003949370235204697,-0.041973307728767395,0.9762495756149292,['x'],['y'],['z'],2020-03-27 17:33:49.398435
30.311870574951172,29.464584350585938,32.941497802734375,896.09228515625,0.4850407079057251,357.41423061255455,146.02977230395277,-33.40005874633789,-23.61055564880371,22.264772415161133,-0.0034556991886347532,-0.04366188496351242,0.9752748012542725,['x'],['y'],['z'],2020-03-27 17:33:49.474451
30.292804718017578,29.462499618530273,33.655670166015625,896.0927734375,0.4622665093353754,357.42857294259454,145.994146037242,-33.44131851196289,-23.449371337890625,22.48375129699707,-0.0034556991886347532,-0.04366188496351242,0.9779554605484009,['x'],['y'],['z'],2020-03-27 17:33:49.550467
30.273740768432617,29.462499618530273,32.20730209350586,896.095947265625,0.44587056019148047,357.441126830289,145.98941954633634,-33.2660026550293,-23.3106632232666,22.094486236572266,-0.004689877387136221,-0.043420661240816116,0.9764932990074158,['x'],['y'],['z'],2020-03-27 17:33:49.628591
30.330936431884766,29.46666717529297,32.93815994262695,896.099365234375,0.4287687003246941,357.45099773430013,145.9701857336336,-33.22187423706055,-23.29561424255371,22.401281356811523,-0.0037025348283350468,-0.042696982622146606,0.9781991243362427,['x'],['y'],['z'],2020-03-27 17:33:49.704382
30.330936431884766,29.46875,32.93815994262695,896.103759765625,0.4125805650223821,357.45872246480803,145.94894384531486,-33.219661712646484,-23.448820114135742,21.805683135986328,-0.002715192036703229,-0.04317943751811981,0.9784428477287292,['x'],['y'],['z'],2020-03-27 17:33:49.779435
30.273740768432617,29.47083282470703,34.723594665527344,896.111328125,0.39557232677199256,357.46935728278913,145.93338467438556,-33.17919158935547,-23.351905822753906,21.325925827026367,-0.0024683563970029354,-0.044144339859485626,0.9781991243362427,['x'],['y'],['z'],2020-03-27 17:33:49.854968
30.311870574951172,29.46875,34.11955261230469,896.109375,0.38151280925234443,357.47480734686,145.9429879203586,-33.349639892578125,-23.051374435424805,21.86272430419922,-0.0024683563970029354,-0.04317943751811981,0.9786865711212158,['x'],['y'],['z'],2020-03-27 17:33:49.930828
30.292804718017578,29.46666717529297,32.761287689208984,896.1123046875,0.36248280832720464,357.4759129837319,145.96638814845505,-33.337608337402344,-23.19232177734375,21.798648834228516,-0.0024683563970029354,-0.043420661240816116,0.9820983409881592,['x'],['y'],['z'],2020-03-27 17:33:50.010443
30.330936431884766,29.464584350585938,34.142913818359375,896.113525390625,0.3466573667419909,357.48322811633295,145.9579460346409,-33.09077453613281,-23.319196701049805,21.610225677490234,-0.002715192036703229,-0.04317943751811981,0.9784428477287292,['x'],['y'],['z'],2020-03-27 17:33:50.086325
30.292804718017578,29.460416793823242,34.63015365600586,896.122314453125,0.3339335780919034,357.48557321909584,145.9493673170434,-32.9632568359375,-23.13372230529785,21.861600875854492,-0.003949370235204697,-0.043420661240816116,0.9803923964500427,['x'],['y'],['z'],2020-03-27 17:33:50.168710
30.330936431884766,29.46875,33.65233612060547,896.12060546875,0.32461671981632995,357.4919944506893,145.94328844868207,-33.41213607788086,-23.398195266723633,21.874555587768555,-0.004196206107735634,-0.04438556358218193,0.9828293919563293,['x'],['y'],['z'],2020-03-27 17:33:50.248821
30.38813018798828,29.462499618530273,32.77797317504883,896.123291015625,0.3208389315142253,357.49427488009843,145.94405342986911,-33.26728439331055,-23.294387817382812,21.803932189941406,-0.003208863316103816,-0.04366188496351242,0.9828293919563293,['x'],['y'],['z'],2020-03-27 17:33:50.323462
30.292804718017578,29.462499618530273,33.45209884643555,896.1240234375,0.31197684110741314,357.490708667578,145.92072150366434,-32.60312271118164,-23.37112808227539,21.811317443847656,-0.002715192036703229,-0.04559169337153435,0.9811235070228577,['x'],['y'],['z'],2020-03-27 17:33:50.398484
30.407194137573242,29.462499618530273,34.84707260131836,896.128173828125,0.30751141817453215,357.49580932478415,145.8949307093584,-32.87424850463867,-23.311559677124023,21.705068588256836,-0.0034556991886347532,-0.04317943751811981,0.9825856685638428,['x'],['y'],['z'],2020-03-27 17:33:50.473653
30.330936431884766,29.460416793823242,32.133880615234375,896.131103515625,0.29903387275407695,357.49911001370054,145.87715855713802,-33.0323600769043,-23.212434768676758,21.454265594482422,-0.0034556991886347532,-0.04366188496351242,0.9828293919563293,['x'],['y'],['z'],2020-03-27 17:33:50.552610
30.273740768432617,29.458332061767578,32.31743240356445,896.13134765625,0.291690565622667,357.4982191009007,145.88450784068493,-32.9772834777832,-23.13412857055664,21.59840965270996,-0.003208863316103816,-0.04317943751811981,0.9828293919563293,['x'],['y'],['z'],2020-03-27 17:33:50.627632
30.330936431884766,29.454166412353516,33.13505935668945,896.135986328125,0.28009149034938374,357.4995040302383,145.8884147088902,-33.38911819458008,-23.268808364868164,22.000150680541992,-0.004196206107735634,-0.043420661240816116,0.9847790002822876,['x'],['y'],['z'],2020-03-27 17:33:50.702158
30.292804718017578,29.456249237060547,35.230857849121094,896.1201171875,0.2748194647642066,357.500619912394,145.91076308785446,-33.143577575683594,-23.30939483642578,22.182025909423828,-0.002715192036703229,-0.04317943751811981,0.9842915534973145,['x'],['y'],['z'],2020-03-27 17:33:50.781153
30.350000381469727,29.456249237060547,32.93815994262695,896.12353515625,0.26657081072222616,357.506612549617,145.91098165390792,-33.1050910949707,-23.37589454650879,21.855682373046875,-0.003949370235204697,-0.044144339859485626,0.9852663278579712,['x'],['y'],['z'],2020-03-27 17:33:50.856599
30.350000381469727,29.458332061767578,32.93815994262695,896.129638671875,0.26233534638487777,357.4982229428821,145.89366029417278,-33.16968536376953,-23.41656494140625,22.00800132751465,-0.002715192036703229,-0.043420661240816116,0.9842915534973145,['x'],['y'],['z'],2020-03-27 17:33:50.930982
30.273740768432617,29.460416793823242,32.71456527709961,896.129150390625,0.2546110694442545,357.5006890680593,145.88760874656813,-33.13775634765625,-23.219402313232422,21.310861587524414,-0.002715192036703229,-0.043420661240816116,0.9847790002822876,['x'],['y'],['z'],2020-03-27 17:33:51.009024
30.235610961914062,29.456249237060547,34.9638786315918,896.1318359375,0.2483495468834982,357.4958291750214,145.91349516352247,-33.06904602050781,-22.989276885986328,21.242490768432617,-0.002715192036703229,-0.04390311613678932,0.9859974384307861,['x'],['y'],['z'],2020-03-27 17:33:51.071832
30.273740768432617,29.46666717529297,34.192970275878906,896.1376953125,0.2434014483557942,357.49465416904076,145.94393048646407,-33.14300537109375,-22.90538215637207,21.89034652709961,-0.0024683563970029354,-0.04366188496351242,0.9840478897094727,['x'],['y'],['z'],2020-03-27 17:33:51.129187
30.273740768432617,29.464584350585938,32.901451110839844,896.13525390625,0.24260834599927936,357.49090652962053,145.97431116789227,-33.47600173950195,-23.28862953186035,22.307281494140625,-0.0034556991886347532,-0.044144339859485626,0.9847790002822876,['x'],['y'],['z'],2020-03-27 17:33:51.183086
30.273740768432617,29.454166412353516,32.901451110839844,896.13232421875,0.23854094166811032,357.48719453525007,146.00242422651604,-33.651283264160156,-23.518075942993164,22.491607666015625,-0.005183548666536808,-0.04317943751811981,0.9847790002822876,['x'],['y'],['z'],2020-03-27 17:33:51.240141
30.273740768432617,29.460416793823242,35.24754333496094,896.13330078125,0.23855017309566043,357.48453631100244,145.992820980543,-33.475772857666016,-23.664060592651367,22.059267044067383,-0.0017278495943173766,-0.04438556358218193,0.984535276889801,['x'],['y'],['z'],2020-03-27 17:33:51.297621
30.369064331054688,29.464584350585938,32.65449523925781,896.13720703125,0.23244377053425747,357.482552354492,145.98028075322685,-33.17082214355469,-23.64073944091797,21.727582931518555,-0.004196206107735634,-0.04390311613678932,0.9852663278579712,['x'],['y'],['z'],2020-03-27 17:33:51.351702
30.369064331054688,29.460416793823242,32.65449523925781,896.127685546875,0.2317272410016408,357.4787995924299,145.94535116581142,-33.11144256591797,-23.463138580322266,21.875381469726562,-0.004196206107735634,-0.04438556358218193,0.9850226640701294,['x'],['y'],['z'],2020-03-27 17:33:51.419307
30.178417205810547,29.447917938232422,33.45209884643555,896.12451171875,0.23115804078385543,357.48113637089966,145.9427147127918,-33.323036193847656,-23.256101608276367,21.478334426879883,-0.002715192036703229,-0.04317943751811981,0.9855100512504578,['x'],['y'],['z'],2020-03-27 17:33:51.486873
30.273740768432617,29.460416793823242,32.2840576171875,896.125244140625,0.2290684031042282,357.47784336594606,145.96521335591783,-33.452457427978516,-23.31793212890625,21.17337417602539,-0.0037025348283350468,-0.04317943751811981,0.9850226640701294,['x'],['y'],['z'],2020-03-27 17:33:51.554891
30.330936431884766,29.456249237060547,32.70121765136719,896.128173828125,0.22503040060300197,357.4782403706916,145.97324565838176,-33.04228210449219,-23.242717742919922,21.434988021850586,-0.003208863316103816,-0.04366188496351242,0.9855100512504578,['x'],['y'],['z'],2020-03-27 17:33:51.612434
30.254676818847656,29.464584350585938,33.475460052490234,896.132080078125,0.2237472188333255,357.47969797574916,145.97231675265462,-33.17506408691406,-23.18967628479004,21.364137649536133,-0.003208863316103816,-0.04366188496351242,0.9852663278579712,['x'],['y'],['z'],2020-03-27 17:33:51.673393
30.254676818847656,29.456249237060547,33.475460052490234,896.13232421875,0.22225502260287605,357.4833230986511,145.9896107916331,-33.38881301879883,-23.20029067993164,21.779207229614258,-0.003949370235204697,-0.04438556358218193,0.9877033233642578,['x'],['y'],['z'],2020-03-27 17:33:51.729878
30.311870574951172,29.464584350585938,33.96937561035156,896.1298828125,0.21811311318085833,357.4846039725639,146.00723267969173,-33.38572692871094,-23.24605941772461,22.159839630126953,-0.0037025348283350468,-0.04438556358218193,0.9867285490036011,['x'],['y'],['z'],2020-03-27 17:33:51.805155
30.311870574951172,29.454166412353516,31.256181716918945,896.131591796875,0.21361796825291726,357.4870976319412,146.0174233219334,-33.159141540527344,-23.330039978027344,21.901485443115234,-0.0034556991886347532,-0.041973307728767395,0.9862411618232727,['x'],['y'],['z'],2020-03-27 17:33:51.881591
30.273740768432617,29.458332061767578,33.82253646850586,896.12841796875,0.21498145810619426,357.48810252352285,146.00657698153142,-33.04698181152344,-23.50143814086914,21.80323028564453,-0.004196206107735634,-0.04317943751811981,0.9862411618232727,['x'],['y'],['z'],2020-03-27 17:33:51.957711
30.330936431884766,29.450000762939453,34.01609420776367,896.13671875,0.2125868231316569,357.4849663994768,145.97704324356027,-32.97598648071289,-23.52397918701172,21.81696319580078,-0.004196206107735634,-0.04317943751811981,0.9857537150382996,['x'],['y'],['z'],2020-03-27 17:33:52.033639
30.330936431884766,29.452083587646484,32.75794982910156,896.138916015625,0.21610214273860526,357.48456576619327,145.94658059986202,-33.06641387939453,-23.415952682495117,21.8887939453125,-0.0037025348283350468,-0.04390311613678932,0.9862411618232727,['x'],['y'],['z'],2020-03-27 17:33:52.109634
30.311870574951172,29.456249237060547,31.12602996826172,896.13232421875,0.21355068021742205,357.47854068557166,145.94382120343732,-32.94021224975586,-23.328413009643555,21.486560821533203,-0.0037025348283350468,-0.04510924220085144,0.990384042263031,['x'],['y'],['z'],2020-03-27 17:33:52.185724
30.292804718017578,29.454166412353516,31.13270378112793,896.130859375,0.21595668105362514,357.48093146522456,145.90846814429335,-32.89461898803711,-23.441530227661133,21.47110366821289,-0.0029620276764035225,-0.041973307728767395,0.987459659576416,['x'],['y'],['z'],2020-03-27 17:33:52.263138
30.292804718017578,29.458332061767578,33.25186538696289,896.131103515625,0.20801487859619283,357.4813754275206,145.85394957433832,-32.49192810058594,-23.412864685058594,21.69292449951172,-0.0034556991886347532,-0.04317943751811981,0.9850226640701294,['x'],['y'],['z'],2020-03-27 17:33:52.340163
30.292804718017578,29.456249237060547,33.25186538696289,896.124267578125,0.20360980678793128,357.4834439076221,145.82283123247973,-32.886470794677734,-23.379762649536133,21.660356521606445,-0.0037025348283350468,-0.044144339859485626,0.988434374332428,['x'],['y'],['z'],2020-03-27 17:33:52.417256
30.2165470123291,29.454166412353516,30.815664291381836,896.1240234375,0.20142066445787607,357.4834518050283,145.81419787336884,-32.9116096496582,-23.297147750854492,21.636920928955078,-0.0034556991886347532,-0.04390311613678932,0.9862411618232727,['x'],['y'],['z'],2020-03-27 17:33:52.492332
30.273740768432617,29.450000762939453,32.61778259277344,896.123779296875,0.19710182378788596,357.4780467775173,145.81105598635062,-32.92362594604492,-23.317310333251953,22.297142028808594,-0.0029620276764035225,-0.044144339859485626,0.9864848256111145,['x'],['y'],['z'],2020-03-27 17:33:52.568342
30.254676818847656,29.458332061767578,34.3531608581543,896.117431640625,0.19466001781939316,357.47758104399327,145.82621900630807,-33.03737258911133,-22.918704986572266,22.067853927612305,-0.0034556991886347532,-0.04366188496351242,0.9872159361839294,['x'],['y'],['z'],2020-03-27 17:33:52.644224
30.273740768432617,29.450000762939453,32.88142776489258,896.1220703125,0.20861712252213077,357.4739283868912,145.87606572687082,-33.442325592041016,-22.884504318237305,22.28171157836914,-0.0034556991886347532,-0.04510924220085144,0.9894092082977295,['x'],['y'],['z'],2020-03-27 17:33:52.722445
30.426258087158203,29.454166412353516,34.112876892089844,896.12890625,0.20965616504961895,357.4769701689494,145.92365848500745,-32.97661590576172,-23.152849197387695,22.345722198486328,-0.005430384073406458,-0.0424557588994503,0.9855100512504578,['x'],['y'],['z'],2020-03-27 17:33:52.798370
30.38813018798828,29.454166412353516,31.74675941467285,896.11572265625,0.20683352267404506,357.47888753111545,145.92354920198073,-32.985843658447266,-23.315793991088867,22.338869094848633,-0.003208863316103816,-0.04366188496351242,0.9857537150382996,['x'],['y'],['z'],2020-03-27 17:33:52.875303
30.273740768432617,29.462499618530273,33.488807678222656,896.097412109375,0.20626414903348783,357.47914494386976,145.92539335305665,-33.21466827392578,-23.2274169921875,22.70929527282715,-0.0034556991886347532,-0.042696982622146606,0.9886780977249146,['x'],['y'],['z'],2020-03-27 17:33:52.951368
30.330936431884766,29.462499618530273,31.286216735839844,896.091552734375,0.20620929407671615,357.47671382341207,145.92913629672182,-33.094017028808594,-23.474390029907227,22.51338005065918,-0.003949370235204697,-0.04390311613678932,0.9881907105445862,['x'],['y'],['z'],2020-03-27 17:33:53.027154
30.292804718017578,29.452083587646484,31.546524047851562,896.092041015625,0.2056958559502016,357.48151630017225,145.92088542820443,-33.259796142578125,-23.36536407470703,22.50890350341797,-0.0037025348283350468,-0.04366188496351242,0.9872159361839294,['x'],['y'],['z'],2020-03-27 17:33:53.103096
30.235610961914062,29.452083587646484,33.05830383300781,896.091552734375,0.20270896886943007,357.4794706585158,145.92122693766294,-33.33863067626953,-23.646224975585938,21.839019775390625,-0.003208863316103816,-0.04390311613678932,0.988434374332428,['x'],['y'],['z'],2020-03-27 17:33:53.178784
30.330936431884766,29.462499618530273,33.31527328491211,896.092041015625,0.2014614855103375,357.48220316107063,145.90180187966342,-33.07697677612305,-23.443069458007812,21.831584930419922,-0.003208863316103816,-0.04438556358218193,0.9867285490036011,['x'],['y'],['z'],2020-03-27 17:33:53.255186
30.311870574951172,29.454166412353516,34.192970275878906,896.093505859375,0.1986158446071677,357.47988943448934,145.8806692743714,-32.61073684692383,-23.39786148071289,22.063844680786133,-0.0029620276764035225,-0.04293820634484291,0.987459659576416,['x'],['y'],['z'],2020-03-27 17:33:53.332215
30.254676818847656,29.458332061767578,31.59992027282715,896.095703125,0.19907597524164442,357.48638579816367,145.86588874500748,-33.21797180175781,-23.388221740722656,22.116573333740234,-0.002221520757302642,-0.042696982622146606,0.9881907105445862,['x'],['y'],['z'],2020-03-27 17:33:53.407947
30.254676818847656,29.460416793823242,31.59992027282715,896.100341796875,0.20336445358633973,357.4894666403661,145.8806009724797,-33.52806091308594,-23.323923110961914,22.428865432739258,-0.003949370235204697,-0.042696982622146606,0.9859974384307861,['x'],['y'],['z'],2020-03-27 17:33:53.481910
30.350000381469727,29.458332061767578,31.63996696472168,896.1064453125,0.20874732300318413,357.4892794504942,145.90614587997555,-33.45323944091797,-23.36745834350586,22.10576057434082,-0.0037025348283350468,-0.04293820634484291,0.9886780977249146,['x'],['y'],['z'],2020-03-27 17:33:53.560431
30.273740768432617,29.460416793823242,33.709068298339844,896.108642578125,0.20650530006791423,357.4909874246735,145.9236038434941,-33.124664306640625,-23.436494827270508,22.100343704223633,-0.0029620276764035225,-0.043420661240816116,0.9869722723960876,['x'],['y'],['z'],2020-03-27 17:33:53.637740
30.2165470123291,29.460416793823242,29.437376022338867,896.115966796875,0.20893568681388838,357.48927881016397,145.9168146354591,-33.10205078125,-23.352344512939453,21.97281265258789,-0.004689877387136221,-0.043420661240816116,0.9857537150382996,['x'],['y'],['z'],2020-03-27 17:33:53.713353
30.273740768432617,29.460416793823242,32.87141418457031,896.12255859375,0.20757470492069724,357.4877842793962,145.91247063514697,-32.91220474243164,-23.409753799438477,22.033113479614258,-0.0029620276764035225,-0.04366188496351242,0.9862411618232727,['x'],['y'],['z'],2020-03-27 17:33:53.789111
30.254676818847656,29.454166412353516,32.26069641113281,896.120361328125,0.20768292073035963,357.4837664206169,145.89372859606445,-33.003639221191406,-23.387889862060547,22.071184158325195,-0.0037025348283350468,-0.04390311613678932,0.9877033233642578,['x'],['y'],['z'],2020-03-27 17:33:53.866115
30.38813018798828,29.456249237060547,32.69120407104492,896.125,0.2135694098767867,357.48047362910677,145.88871523721366,-33.16517639160156,-23.539806365966797,21.70043182373047,-0.0037025348283350468,-0.043420661240816116,0.987459659576416,['x'],['y'],['z'],2020-03-27 17:33:53.941104
30.369064331054688,29.460416793823242,32.884765625,896.124267578125,0.2062072130034534,357.482191421683,145.89245818087883,-33.31864929199219,-23.2208251953125,21.788305282592773,-0.002221520757302642,-0.04366188496351242,0.9877033233642578,['x'],['y'],['z'],2020-03-27 17:33:54.016406
30.330936431884766,29.458332061767578,33.95268630981445,896.12744140625,0.20772491572158464,357.4836582048073,145.9340130517892,-33.4931640625,-22.842620849609375,22.17332649230957,-0.0029620276764035225,-0.04317943751811981,0.988434374332428,['x'],['y'],['z'],2020-03-27 17:33:54.091521
30.235610961914062,29.456249237060547,32.65115737915039,896.135986328125,0.2058437188735618,357.47336639038855,146.00251984916443,-33.5066032409668,-22.6064395904541,22.600872039794922,-0.004196206107735634,-0.04510924220085144,0.9881907105445862,['x'],['y'],['z'],2020-03-27 17:33:54.167711
30.235610961914062,29.454166412353516,32.4208869934082,896.146484375,0.20465275799789373,357.4722223337026,146.0654395517986,-33.122581481933594,-23.071868896484375,22.356624603271484,-0.0037025348283350468,-0.04462679103016853,0.9872159361839294,['x'],['y'],['z'],2020-03-27 17:33:54.247002
30.350000381469727,29.452083587646484,32.808006286621094,896.148193359375,0.2057131982273911,357.46903626389815,146.06791208027812,-32.96156311035156,-23.482139587402344,21.928955078125,-0.004689877387136221,-0.04317943751811981,0.9869722723960876,['x'],['y'],['z'],2020-03-27 17:33:54.322020
30.254676818847656,29.458332061767578,32.98488235473633,896.1474609375,0.204050887597926,357.4637689073876,146.02874777557727,-32.935054779052734,-23.30153465270996,22.090328216552734,-0.0034556991886347532,-0.043420661240816116,0.9879470467567444,['x'],['y'],['z'],2020-03-27 17:33:54.397154
30.254676818847656,29.458332061767578,32.98488235473633,896.15087890625,0.20694862203373038,357.45941508867855,146.02973132281775,-33.240047454833984,-22.97101593017578,21.84496307373047,-0.0034556991886347532,-0.0424557588994503,0.9867285490036011,['x'],['y'],['z'],2020-03-27 17:33:54.475275
30.292804718017578,29.456249237060547,30.765605926513672,896.143310546875,0.20672087791359275,357.46066629395716,146.07246098626536,-33.49796676635742,-23.000429153442383,22.382217407226562,-0.0034556991886347532,-0.042696982622146606,0.9894092082977295,['x'],['y'],['z'],2020-03-27 17:33:54.549595
30.178417205810547,29.452083587646484,32.04043960571289,896.139404296875,0.20771979307970712,357.45865096126516,146.1118301966413,-33.36265182495117,-22.887216567993164,22.558605194091797,-0.003208863316103816,-0.04486801475286484,0.9877033233642578,['x'],['y'],['z'],2020-03-27 17:33:54.624815
30.350000381469727,29.454166412353516,33.2385139465332,896.136474609375,0.2046994487441731,357.45348861891307,146.08838898740981,-33.162879943847656,-23.775604248046875,22.750469207763672,-0.003208863316103816,-0.043420661240816116,0.9862411618232727,['x'],['y'],['z'],2020-03-27 17:33:54.703728
30.311870574951172,29.458332061767578,31.80682945251465,896.135498046875,0.199642133890815,357.45285426509395,146.06146438170163,-33.25491714477539,-23.46636390686035,22.692190170288086,-0.0037025348283350468,-0.042696982622146606,0.9881907105445862,['x'],['y'],['z'],2020-03-27 17:33:54.778869
30.330936431884766,29.450000762939453,33.722415924072266,896.13232421875,0.19753324628350746,357.45894807449406,146.05303592826584,-33.12043380737305,-23.306764602661133,22.509841918945312,-0.002715192036703229,-0.043420661240816116,0.9857537150382996,['x'],['y'],['z'],2020-03-27 17:33:54.854422
30.273740768432617,29.460416793823242,32.41421127319336,896.129150390625,0.19550525372918223,357.4612502751312,146.04307751245597,-32.813236236572266,-23.22806739807129,22.438302993774414,-0.003208863316103816,-0.04317943751811981,0.9864848256111145,['x'],['y'],['z'],2020-03-27 17:33:54.929113
30.273740768432617,29.460416793823242,32.567726135253906,896.126220703125,0.19563918946993797,357.45750861212645,146.00907683076764,-32.63130569458008,-23.316476821899414,21.829959869384766,-0.003949370235204697,-0.04390311613678932,0.9869722723960876,['x'],['y'],['z'],2020-03-27 17:33:55.008010
30.292804718017578,29.452083587646484,33.909305572509766,896.12744140625,0.1979698047612197,357.45782344115855,146.0035716982966,-33.344669342041016,-23.083465576171875,21.81412696838379,-0.003949370235204697,-0.043420661240816116,0.9889218211174011,['x'],['y'],['z'],2020-03-27 17:33:55.084399
30.311870574951172,29.447917938232422,33.178443908691406,896.132080078125,0.1922342201067676,357.46222229642746,146.02318800159287,-33.021202087402344,-23.140361785888672,21.817338943481445,-0.004196206107735634,-0.04366188496351242,0.990384042263031,['x'],['y'],['z'],2020-03-27 17:33:55.159515
30.235610961914062,29.450000762939453,33.01825714111328,896.131103515625,0.19567506130329376,357.46223019383365,146.02339290726798,-32.85953140258789,-23.177093505859375,22.315961837768555,-0.003208863316103816,-0.04366188496351242,0.9862411618232727,['x'],['y'],['z'],2020-03-27 17:33:55.234839
30.292804718017578,29.445833206176758,32.02375030517578,896.128173828125,0.1966523653239874,357.4577233361985,146.01495079345383,-32.99786376953125,-23.3370418548584,22.866445541381836,-0.002221520757302642,-0.04510924220085144,0.987459659576416,['x'],['y'],['z'],2020-03-27 17:33:55.313910
30.254676818847656,29.458332061767578,32.33745574951172,896.1259765625,0.19354776420173891,357.4498306257257,145.99907743382275,-33.10144805908203,-23.335100173950195,22.165267944335938,-0.0037025348283350468,-0.04390311613678932,0.9864848256111145,['x'],['y'],['z'],2020-03-27 17:33:55.389297
30.350000381469727,29.454166412353516,34.42991638183594,896.123291015625,0.19969432080494215,357.45775471238,146.00389954737676,-33.33236312866211,-23.325246810913086,22.525922775268555,-0.0037025348283350468,-0.04366188496351242,0.987459659576416,['x'],['y'],['z'],2020-03-27 17:33:55.464507
30.350000381469727,29.447917938232422,34.42991638183594,896.124755859375,0.2006220125726606,357.45152771429105,146.01990951079128,-33.27647399902344,-23.234851837158203,22.65912437438965,-0.004936712794005871,-0.04390311613678932,0.987459659576416,['x'],['y'],['z'],2020-03-27 17:33:55.541641
30.254676818847656,29.450000762939453,32.797996520996094,896.124267578125,0.20291222035809084,357.45174414591037,146.02814671893032,-33.02528381347656,-23.253787994384766,22.406301498413086,-0.004196206107735634,-0.04438556358218193,0.9901403188705444,['x'],['y'],['z'],2020-03-27 17:33:55.617005
30.311870574951172,29.458332061767578,34.930503845214844,896.126708984375,0.19933237413978436,357.4544984196932,146.02126188824695,-32.713478088378906,-23.09693717956543,22.093955993652344,-0.004936712794005871,-0.04510924220085144,0.9872159361839294,['x'],['y'],['z'],2020-03-27 17:33:55.692325
30.350000381469727,29.450000762939453,33.205142974853516,896.12939453125,0.20272961951949878,357.45199857045696,146.0167403030164,-32.88639450073242,-22.950916290283203,21.793010711669922,-0.0037025348283350468,-0.04366188496351242,0.988434374332428,['x'],['y'],['z'],2020-03-27 17:33:55.771314
30.426258087158203,29.450000762939453,33.47212219238281,896.137939453125,0.20371407389447976,357.448459038363,146.02077011462669,-32.925392150878906,-23.07428741455078,22.49141502380371,-0.004689877387136221,-0.04293820634484291,0.9886780977249146,['x'],['y'],['z'],2020-03-27 17:33:55.846379
30.369064331054688,29.452083587646484,32.591087341308594,896.140869140625,0.20323435982699214,357.45590714620954,146.0345261156151,-33.073673248291016,-22.945934295654297,22.123571395874023,-0.0024683563970029354,-0.04390311613678932,0.9894092082977295,['x'],['y'],['z'],2020-03-27 17:33:55.924187
30.235610961914062,29.454166412353516,33.111698150634766,896.13916015625,0.20216643573787685,357.4610639390329,146.08023374154084,-32.945594787597656,-22.812660217285156,21.87468719482422,-0.005183548666536808,-0.04390311613678932,0.9864848256111145,['x'],['y'],['z'],2020-03-27 17:33:55.999477
30.292804718017578,29.456249237060547,32.14723205566406,896.140380859375,0.20420878236162968,357.45768171473327,146.0956153275517,-32.965545654296875,-22.935863494873047,22.161846160888672,-0.004196206107735634,-0.04438556358218193,0.987459659576416,['x'],['y'],['z'],2020-03-27 17:33:56.074730
30.350000381469727,29.450000762939453,34.45995330810547,896.138916015625,0.2078061309396843,357.45251979926803,146.12157004639775,-32.88303756713867,-22.995622634887695,22.076560974121094,-0.0037025348283350468,-0.042696982622146606,0.9879470467567444,['x'],['y'],['z'],2020-03-27 17:33:56.149767
30.254676818847656,29.445833206176758,33.241851806640625,896.136474609375,0.21116356912314227,357.45363162599887,146.1213104992093,-32.78874206542969,-22.75353240966797,21.85074234008789,-0.002715192036703229,-0.04390311613678932,0.987459659576416,['x'],['y'],['z'],2020-03-27 17:33:56.230088
30.19748306274414,29.458332061767578,32.38084030151367,896.13818359375,0.20997691713634511,357.4527464761711,146.1548603884124,-33.03635025024414,-22.60511016845703,21.91027069091797,-0.002715192036703229,-0.04390311613678932,0.987459659576416,['x'],['y'],['z'],2020-03-27 17:33:56.305889
30.254676818847656,29.447917938232422,32.681190490722656,896.142333984375,0.20564212157134065,357.45312064247156,146.17379367279167,-33.016212463378906,-23.18374252319336,21.803316116333008,-0.002221520757302642,-0.042696982622146606,0.9881907105445862,['x'],['y'],['z'],2020-03-27 17:33:56.381074
30.235610961914062,29.441665649414062,32.761287689208984,896.138916015625,0.19856659253994957,357.4542326826458,146.16285170974132,-33.02650833129883,-23.008054733276367,21.904525756835938,-0.003949370235204697,-0.04390311613678932,0.9898965954780579,['x'],['y'],['z'],2020-03-27 17:33:56.456345
30.235610961914062,29.456249237060547,32.761287689208984,896.138671875,0.1961771335681426,357.4533957710291,146.1529889165798,-33.089603424072266,-23.213115692138672,22.18545150756836,-0.0029620276764035225,-0.04293820634484291,0.9898965954780579,['x'],['y'],['z'],2020-03-27 17:33:56.534493
30.407194137573242,29.447917938232422,35.81154251098633,896.147216796875,0.19272311224095243,357.4550196485042,146.1655837854093,-33.562705993652344,-23.09822654724121,22.339679718017578,-0.0024683563970029354,-0.043420661240816116,0.9869722723960876,['x'],['y'],['z'],2020-03-27 17:33:56.608888
30.350000381469727,29.452083587646484,34.99391174316406,896.1552734375,0.18848505990223885,357.4530869184125,146.17535095592243,-33.22624969482422,-23.332399368286133,22.23101234436035,-0.0029620276764035225,-0.04366188496351242,0.9881907105445862,['x'],['y'],['z'],2020-03-27 17:33:56.683959
30.19748306274414,29.445833206176758,32.133880615234375,896.15185546875,0.18576657791150766,357.45703370053576,146.17268718214612,-33.18327331542969,-23.10028648376465,22.035921096801758,-0.004689877387136221,-0.04293820634484291,0.9879470467567444,['x'],['y'],['z'],2020-03-27 17:33:56.762828
30.235610961914062,29.460416793823242,32.95151138305664,896.154296875,0.1907941574295924,357.45944987995466,146.1720997858775,-33.27231979370117,-23.246816635131836,22.134445190429688,-0.002715192036703229,-0.04390311613678932,0.9872159361839294,['x'],['y'],['z'],2020-03-27 17:33:56.838008
30.330936431884766,29.445833206176758,33.281898498535156,896.154541015625,0.1905093171968617,357.4678253994244,146.16394454000852,-33.29987335205078,-23.34194564819336,21.725126266479492,-0.0024683563970029354,-0.043420661240816116,0.9872159361839294,['x'],['y'],['z'],2020-03-27 17:33:56.913352
30.273740768432617,29.443750381469727,33.44208908081055,896.144775390625,0.19112874331743046,357.46947681109964,146.17159435187892,-33.2962760925293,-23.05249786376953,22.174686431884766,-0.005430384073406458,-0.04293820634484291,0.9889218211174011,['x'],['y'],['z'],2020-03-27 17:33:56.988468
30.273740768432617,29.450000762939453,32.44091033935547,896.149658203125,0.1938918883420312,357.4698119172558,146.1880004662653,-33.27043151855469,-23.1151065826416,22.43947410583496,-0.004196206107735634,-0.04366188496351242,0.9864848256111145,['x'],['y'],['z'],2020-03-27 17:33:57.067454
30.330936431884766,29.441665649414062,31.683351516723633,896.147705078125,0.19201143854594882,357.46883797496884,146.20560869394558,-33.41869354248047,-23.269498825073242,23.06671142578125,-0.0029620276764035225,-0.04317943751811981,0.988434374332428,['x'],['y'],['z'],2020-03-27 17:33:57.142652
30.235610961914062,29.452083587646484,31.823516845703125,896.150390625,0.1934822370743891,357.46994403872753,146.22226069514207,-33.327579498291016,-23.215797424316406,22.402528762817383,-0.003208863316103816,-0.04366188496351242,0.9879470467567444,['x'],['y'],['z'],2020-03-27 17:33:57.217795
30.235610961914062,29.447917938232422,33.11837387084961,896.149169921875,0.19259995539248062,357.4658288497526,146.2062917128626,-33.262290954589844,-23.2417049407959,22.065261840820312,-0.002221520757302642,-0.043420661240816116,0.9886780977249146,['x'],['y'],['z'],2020-03-27 17:33:57.293334
30.19748306274414,29.452083587646484,32.64781951904297,896.15771484375,0.19472437100797937,357.4670870986638,146.1568821244067,-32.606964111328125,-23.30721092224121,22.059438705444336,-0.0029620276764035225,-0.04390311613678932,0.9918461441993713,['x'],['y'],['z'],2020-03-27 17:33:57.372215
30.254676818847656,29.433334350585938,31.256181716918945,896.156494140625,0.19268330504469594,357.4720449622275,146.1319655943145,-32.9598388671875,-23.0980167388916,21.578271865844727,-0.003208863316103816,-0.04462679103016853,0.9877033233642578,['x'],['y'],['z'],2020-03-27 17:33:57.447457
30.235610961914062,29.452083587646484,30.16156005859375,896.156494140625,0.19785837396017064,357.4723185966812,146.139096311808,-32.88457489013672,-22.78772735595703,21.71790885925293,-0.004689877387136221,-0.04486801475286484,0.9879470467567444,['x'],['y'],['z'],2020-03-27 17:33:57.528180
30.235610961914062,29.452083587646484,30.16156005859375,896.150146484375,0.20179189591143684,357.46889432402946,146.14973774653487,-32.829647064208984,-22.934112548828125,21.706880569458008,-0.0029620276764035225,-0.04438556358218193,0.9894092082977295,['x'],['y'],['z'],2020-03-27 17:33:57.608109
30.292804718017578,29.447917938232422,32.2840576171875,896.153564453125,0.20270902223028295,357.4665577590031,146.1605977473152,-32.8995361328125,-22.695859909057617,21.314533233642578,-0.003208863316103816,-0.0422145314514637,0.987459659576416,['x'],['y'],['z'],2020-03-27 17:33:57.683585
30.235610961914062,29.445833206176758,36.1853141784668,896.150146484375,0.19429300187321077,357.46301289082385,146.19550001397397,-33.015403747558594,-22.67991828918457,21.328187942504883,-0.004196206107735634,-0.043420661240816116,0.9872159361839294,['x'],['y'],['z'],2020-03-27 17:33:57.762210
30.311870574951172,29.452083587646484,34.00274658203125,896.15185546875,0.19097463717428204,357.47160804356406,146.21859971374695,-33.109073638916016,-22.834341049194336,21.50603485107422,-0.0037025348283350468,-0.0424557588994503,0.9894092082977295,['x'],['y'],['z'],2020-03-27 17:33:57.838100
30.350000381469727,29.447917938232422,32.85806655883789,896.14990234375,0.18977950081187528,357.4712669609924,146.24702696107255,-33.15437316894531,-22.704452514648438,21.77029037475586,-0.0037025348283350468,-0.043420661240816116,0.9859974384307861,['x'],['y'],['z'],2020-03-27 17:33:57.914673
30.330936431884766,29.450000762939453,32.75127410888672,896.1513671875,0.1902499300909599,357.4699263229244,146.28951073771003,-33.3243293762207,-22.800945281982422,22.083393096923828,-0.003208863316103816,-0.044144339859485626,0.988434374332428,['x'],['y'],['z'],2020-03-27 17:33:57.992633
30.350000381469727,29.452083587646484,31.733409881591797,896.15625,0.1895612549235522,357.4657065466778,146.3120640223494,-33.053741455078125,-22.959787368774414,22.13909149169922,-0.0037025348283350468,-0.04366188496351242,0.9886780977249146,['x'],['y'],['z'],2020-03-27 17:33:58.068488
30.38813018798828,29.454166412353516,32.811344146728516,896.15771484375,0.18651284277939767,357.45994293423536,146.31806092844067,-33.46244430541992,-23.051816940307617,21.967470169067383,-0.004196206107735634,-0.04390311613678932,0.9877033233642578,['x'],['y'],['z'],2020-03-27 17:33:58.144563
30.330936431884766,29.462499618530273,32.797996520996094,896.15966796875,0.18424974230723593,357.46426943218773,146.33857881670738,-33.2708625793457,-22.772729873657227,22.155590057373047,-0.0034556991886347532,-0.04486801475286484,0.9877033233642578,['x'],['y'],['z'],2020-03-27 17:33:58.220572
30.235610961914062,29.452083587646484,34.39320755004883,896.16748046875,0.18543968932669908,357.4596893634624,146.37852176297363,-33.067710876464844,-22.50696563720703,22.25421905517578,-0.003208863316103816,-0.042696982622146606,0.9901403188705444,['x'],['y'],['z'],2020-03-27 17:33:58.296581
30.254676818847656,29.447917938232422,33.40203857421875,896.1640625,0.1904381338191055,357.46375311257515,146.4170440298925,-33.21469497680664,-22.733888626098633,22.021268844604492,-0.002715192036703229,-0.043420661240816116,0.9891654849052429,['x'],['y'],['z'],2020-03-27 17:33:58.372462
30.273740768432617,29.454166412353516,33.552215576171875,896.167724609375,0.1930304173927501,357.4598978976755,146.37846712146026,-33.2459716796875,-23.615589141845703,22.039112091064453,-0.003949370235204697,-0.04438556358218193,0.990384042263031,['x'],['y'],['z'],2020-03-27 17:33:58.448318
30.330936431884766,29.454166412353516,32.08048629760742,896.16796875,0.19915847112021348,357.4620395888671,146.33457632585376,-33.08427429199219,-23.333154678344727,22.518156051635742,-0.0034556991886347532,-0.04293820634484291,0.9879470467567444,['x'],['y'],['z'],2020-03-27 17:33:58.523920
30.330936431884766,29.456249237060547,32.83136749267578,896.1669921875,0.20186676118804253,357.4599937337673,146.31893519265444,-32.94578170776367,-22.895496368408203,22.6873836517334,-0.0024683563970029354,-0.04390311613678932,0.9864848256111145,['x'],['y'],['z'],2020-03-27 17:33:58.600133
30.330936431884766,29.450000762939453,32.227325439453125,896.1708984375,0.19798042357094495,357.46111729988576,146.32198145702426,-33.00127029418945,-23.05447006225586,22.201387405395508,-0.004936712794005871,-0.04366188496351242,0.9898965954780579,['x'],['y'],['z'],2020-03-27 17:33:58.676142
30.235610961914062,29.456249237060547,32.227325439453125,896.174560546875,0.1988303552357884,357.46270638608485,146.32375730620848,-33.00965881347656,-22.868507385253906,22.04924774169922,-0.0034556991886347532,-0.04462679103016853,0.9862411618232727,['x'],['y'],['z'],2020-03-27 17:33:58.754036
30.350000381469727,29.456249237060547,33.512168884277344,896.171142578125,0.20032217794026763,357.46562970704963,146.32036953238014,-33.10813522338867,-23.137174606323242,21.891372680664062,-0.0037025348283350468,-0.04390311613678932,0.988434374332428,['x'],['y'],['z'],2020-03-27 17:33:58.829933
30.292804718017578,29.454166412353516,34.817039489746094,896.17138671875,0.19757566816155558,357.46474092868385,146.31105315435224,-33.17201614379883,-22.98647117614746,22.548612594604492,-0.004689877387136221,-0.04317943751811981,0.9891654849052429,['x'],['y'],['z'],2020-03-27 17:33:58.908157
30.311870574951172,29.456249237060547,34.15959930419922,896.168701171875,0.1962453820989898,357.45842727256985,146.32259617404955,-33.349361419677734,-23.086219787597656,21.84027099609375,-0.0037025348283350468,-0.04366188496351242,0.9877033233642578,['x'],['y'],['z'],2020-03-27 17:33:58.984019
30.311870574951172,29.450000762939453,33.58892822265625,896.173095703125,0.19604437176615047,357.45803603079645,146.3218585136192,-33.03375244140625,-23.072248458862305,21.532907485961914,-0.004689877387136221,-0.044144339859485626,0.9891654849052429,['x'],['y'],['z'],2020-03-27 17:33:59.059040
30.254676818847656,29.454166412353516,30.922456741333008,896.16943359375,0.1972752999206337,357.4638794710748,146.31200938083603,-33.096065521240234,-22.832853317260742,20.89644432067871,-0.0034556991886347532,-0.04390311613678932,0.9928209781646729,['x'],['y'],['z'],2020-03-27 17:33:59.134128
30.273740768432617,29.447917938232422,31.319589614868164,896.165771484375,0.19412635592963304,357.4608889154354,146.33805972233048,-33.07130432128906,-22.741605758666992,21.269058227539062,-0.0037025348283350468,-0.04462679103016853,0.9857537150382996,['x'],['y'],['z'],2020-03-27 17:33:59.209182
30.292804718017578,29.452083587646484,33.37868118286133,896.16162109375,0.1968357665753728,357.46458041923836,146.33598334482278,-32.96070098876953,-23.31825828552246,20.84777069091797,-0.0029620276764035225,-0.04462679103016853,0.987459659576416,['x'],['y'],['z'],2020-03-27 17:33:59.288429
30.350000381469727,29.450000762939453,34.11955261230469,896.1572265625,0.19611165980164566,357.46005392480936,146.28416952977906,-33.111148834228516,-23.438852310180664,21.743127822875977,-0.0034556991886347532,-0.04366188496351242,0.9891654849052429,['x'],['y'],['z'],2020-03-27 17:33:59.363672
30.292804718017578,29.450000762939453,31.56988525390625,896.1591796875,0.19490878611556972,357.45178213883764,146.21734295893967,-32.77105712890625,-23.523235321044922,21.9456787109375,-0.0037025348283350468,-0.04390311613678932,0.988434374332428,['x'],['y'],['z'],2020-03-27 17:33:59.438718
30.311870574951172,29.454166412353516,33.074989318847656,896.15283203125,0.19303596692145075,357.45430952227395,146.16358937017168,-32.950477600097656,-23.61750602722168,21.725540161132812,-0.002715192036703229,-0.04462679103016853,0.9898965954780579,['x'],['y'],['z'],2020-03-27 17:33:59.513686
30.235610961914062,29.447917938232422,32.65449523925781,896.152587890625,0.1947984892326446,357.4551425919093,146.12591404670988,-32.90069580078125,-23.281707763671875,21.657493591308594,-0.0037025348283350468,-0.04776272922754288,0.9925772547721863,['x'],['y'],['z'],2020-03-27 17:33:59.593048
30.254676818847656,29.452083587646484,32.93815994262695,896.149169921875,0.1887431263270316,357.4394369987997,146.1118301966413,-32.99055480957031,-23.096527099609375,21.858814239501953,-0.0029620276764035225,-0.041249629110097885,0.981610894203186,['x'],['y'],['z'],2020-03-27 17:33:59.670206
30.254676818847656,29.456249237060547,33.91263961791992,896.152587890625,0.18884360481302484,357.44047326656283,146.11386559301397,-33.00830078125,-22.97940444946289,22.207460403442383,-0.0034556991886347532,-0.04462679103016853,0.9916024804115295,['x'],['y'],['z'],2020-03-27 17:33:59.745402
30.311870574951172,29.456249237060547,33.91263961791992,896.1494140625,0.1902298130494201,357.4441047927671,146.13061321685885,-33.093318939208984,-23.014469146728516,22.030366897583008,-0.004443041514605284,-0.04317943751811981,0.9906277060508728,['x'],['y'],['z'],2020-03-27 17:33:59.818744
30.2165470123291,29.447917938232422,32.31743240356445,896.143798828125,0.18999865383469747,357.4386683890746,146.14266167055476,-32.91819763183594,-23.121152877807617,21.42606544494629,-0.0034556991886347532,-0.04366188496351242,0.987459659576416,['x'],['y'],['z'],2020-03-27 17:33:59.897913
30.235610961914062,29.452083587646484,32.82135772705078,896.143798828125,0.18708833957782414,357.4304693873063,146.11413880058078,-32.56184005737305,-23.251832962036133,21.144865036010742,-0.0034556991886347532,-0.04486801475286484,0.9901403188705444,['x'],['y'],['z'],2020-03-27 17:33:59.973183
30.178417205810547,29.458332061767578,32.771297454833984,896.141357421875,0.18889114933295048,357.4343544842835,146.07430513734127,-32.843467712402344,-23.283658981323242,21.063282012939453,-0.002221520757302642,-0.04462679103016853,0.987459659576416,['x'],['y'],['z'],2020-03-27 17:34:00.048442
30.350000381469727,29.452083587646484,33.25186538696289,896.13818359375,0.18794979718689198,357.43844555415296,146.0496071733025,-32.680076599121094,-23.305252075195312,21.232139587402344,-0.004196206107735634,-0.042696982622146606,0.9877033233642578,['x'],['y'],['z'],2020-03-27 17:34:00.123494
30.273740768432617,29.456249237060547,32.771297454833984,896.14208984375,0.18999897399981483,357.4398515059049,145.99771139598874,-32.53273010253906,-23.476579666137695,21.44837760925293,-0.0029620276764035225,-0.043420661240816116,0.990384042263031,['x'],['y'],['z'],2020-03-27 17:34:00.202370
30.292804718017578,29.452083587646484,32.85472869873047,896.144287109375,0.19055915623346165,357.43991425826795,145.98342264024507,-32.971702575683594,-23.25960922241211,21.6185245513916,-0.0037025348283350468,-0.043420661240816116,0.988434374332428,['x'],['y'],['z'],2020-03-27 17:34:00.277741
30.369064331054688,29.454166412353516,31.730073928833008,896.147705078125,0.18830678129273093,357.4355683369651,145.96287743122167,-32.8128662109375,-23.349042892456055,21.67255973815918,-0.004443041514605284,-0.04462679103016853,0.988434374332428,['x'],['y'],['z'],2020-03-27 17:34:00.353013
30.407194137573242,29.450000762939453,32.16725540161133,896.148681640625,0.18718828445528846,357.43253103721855,145.945173580893,-32.89949417114258,-23.334978103637695,21.149904251098633,-0.002715192036703229,-0.044144339859485626,0.9872159361839294,['x'],['y'],['z'],2020-03-27 17:34:00.431963
30.273740768432617,29.450000762939453,32.41421127319336,896.15185546875,0.1845628104311458,357.4276756264923,145.91349516352247,-32.73106002807617,-23.709699630737305,21.178529739379883,-0.003949370235204697,-0.04390311613678932,0.9881907105445862,['x'],['y'],['z'],2020-03-27 17:34:00.506945
30.254676818847656,29.445833206176758,33.04829025268555,896.148193359375,0.18618659452482378,357.4218842664064,145.86851153764877,-33.052001953125,-23.186359405517578,21.33456802368164,-0.003208863316103816,-0.04293820634484291,0.9869722723960876,['x'],['y'],['z'],2020-03-27 17:34:00.582069
30.273740768432617,29.452083587646484,32.8347053527832,896.146240234375,0.1887012380575124,357.4231984374914,145.89090089774808,-33.118404388427734,-23.09842300415039,21.43122100830078,-0.003949370235204697,-0.04390311613678932,0.9879470467567444,['x'],['y'],['z'],2020-03-27 17:34:00.659001
30.350000381469727,29.450000762939453,34.95052719116211,896.14697265625,0.1871012529042237,357.4244009776721,145.93052965531248,-33.131629943847656,-22.945817947387695,21.88307762145996,-0.003208863316103816,-0.04390311613678932,0.987459659576416,['x'],['y'],['z'],2020-03-27 17:34:00.733928
30.350000381469727,29.452083587646484,34.95052719116211,896.14306640625,0.18817743458532382,357.4243119717695,145.9835729044068,-33.6182861328125,-22.64908218383789,21.81674575805664,-0.002715192036703229,-0.04390311613678932,0.987459659576416,['x'],['y'],['z'],2020-03-27 17:34:00.811119
30.19748306274414,29.447917938232422,30.4619140625,896.137451171875,0.19012437200410803,357.42306311436846,146.06927811811212,-33.628273010253906,-22.66823959350586,22.16316795349121,-0.002221520757302642,-0.04390311613678932,0.9891654849052429,['x'],['y'],['z'],2020-03-27 17:34:00.886447
30.330936431884766,29.454166412353516,34.22300720214844,896.140380859375,0.18239106373913297,357.42848799211674,146.15133601080066,-33.4309196472168,-22.643917083740234,21.879587173461914,-0.004443041514605284,-0.04438556358218193,0.9864848256111145,['x'],['y'],['z'],2020-03-27 17:34:00.965680
30.19748306274414,29.456249237060547,32.838043212890625,896.13671875,0.18626396776151533,357.4268278292616,146.208477373397,-33.22352600097656,-22.985898971557617,21.71506118774414,-0.003208863316103816,-0.04462679103016853,0.9877033233642578,['x'],['y'],['z'],2020-03-27 17:34:01.040971
30.273740768432617,29.443750381469727,32.884765625,896.137451171875,0.1887138845796475,357.43274127897894,146.23758763963957,-33.4722900390625,-22.824729919433594,21.483596801757812,-0.002715192036703229,-0.04462679103016853,0.990384042263031,['x'],['y'],['z'],2020-03-27 17:34:01.116127
30.311870574951172,29.452083587646484,32.527679443359375,896.138671875,0.19206463931628087,357.4342582213049,146.29211986997296,-33.459815979003906,-22.614511489868164,21.296730041503906,-0.003949370235204697,-0.04366188496351242,0.9894092082977295,['x'],['y'],['z'],2020-03-27 17:34:01.191814
30.292804718017578,29.454166412353516,32.75794982910156,896.134521484375,0.19234371657689936,357.432856965308,146.32818326879064,-33.31748962402344,-22.80535316467285,22.09764862060547,-0.003949370235204697,-0.04390311613678932,0.9889218211174011,['x'],['y'],['z'],2020-03-27 17:34:01.271062
30.350000381469727,29.443750381469727,33.12504959106445,896.14697265625,0.1915945302023136,357.43635935824835,146.3603534597814,-33.33992385864258,-22.910905838012695,21.882396697998047,-0.004936712794005871,-0.042696982622146606,0.9881907105445862,['x'],['y'],['z'],2020-03-27 17:34:01.348836
30.292804718017578,29.445833206176758,33.6423225402832,896.146728515625,0.1927318100599736,357.4361109101173,146.3984795757284,-33.457462310791016,-22.616174697875977,22.1049861907959,-0.003208863316103816,-0.04510924220085144,0.9891654849052429,['x'],['y'],['z'],2020-03-27 17:34:01.430525
30.426258087158203,29.458332061767578,31.563209533691406,896.145751953125,0.19642045905732428,357.43818472630403,146.4578339196158,-33.576026916503906,-22.620655059814453,22.019350051879883,-0.004196206107735634,-0.04366188496351242,0.9894092082977295,['x'],['y'],['z'],2020-03-27 17:34:01.506794
30.235610961914062,29.441665649414062,31.59992027282715,896.1435546875,0.20101240057240916,357.4428324565908,146.5053720362391,-33.77342987060547,-22.878190994262695,21.71889877319336,-0.0037025348283350468,-0.04366188496351242,0.9898965954780579,['x'],['y'],['z'],2020-03-27 17:34:01.582558
30.273740768432617,29.452083587646484,32.864742279052734,896.1435546875,0.19658091514196668,357.4427876334744,146.5455745296938,-33.565643310546875,-22.82004737854004,21.979476928710938,-0.0024683563970029354,-0.04438556358218193,0.9901403188705444,['x'],['y'],['z'],2020-03-27 17:34:01.658093
30.350000381469727,29.441665649414062,32.681190490722656,896.145751953125,0.20186926914812842,357.4447242055475,146.55684434182433,-33.4459228515625,-22.746150970458984,21.536741256713867,-0.003208863316103816,-0.04390311613678932,0.9894092082977295,['x'],['y'],['z'],2020-03-27 17:34:01.735567
30.350000381469727,29.445833206176758,30.59540557861328,896.144287109375,0.20272342966056345,357.4465070983643,146.57924736230197,-33.49928283691406,-22.613140106201172,21.545276641845703,-0.003208863316103816,-0.04366188496351242,0.9872159361839294,['x'],['y'],['z'],2020-03-27 17:34:01.811174
30.350000381469727,29.450000762939453,33.909305572509766,896.14990234375,0.20251393495211448,357.4455636784852,146.61921762932488,-33.43385314941406,-22.71729278564453,22.0327205657959,-0.003949370235204697,-0.04390311613678932,0.988434374332428,['x'],['y'],['z'],2020-03-27 17:34:01.886855
30.426258087158203,29.445833206176758,33.909305572509766,896.15380859375,0.20308110745748997,357.4466509592237,146.6464291029782,-33.4999885559082,-22.935611724853516,22.148319244384766,-0.003208863316103816,-0.042696982622146606,0.9894092082977295,['x'],['y'],['z'],2020-03-27 17:34:01.981783
30.2165470123291,29.441665649414062,32.73125076293945,896.16015625,0.19893067363922298,357.4520818133875,146.66954246312952,-33.59137725830078,-22.689720153808594,21.662548065185547,-0.004443041514605284,-0.04486801475286484,0.9855100512504578,['x'],['y'],['z'],2020-03-27 17:34:02.060337
30.235610961914062,29.450000762939453,33.43207550048828,896.16357421875,0.20136063349837402,357.4500015938984,146.68840744561712,-33.31159591674805,-22.843801498413086,21.470781326293945,-0.002715192036703229,-0.04583292081952095,0.9906277060508728,['x'],['y'],['z'],2020-03-27 17:34:02.126613
30.235610961914062,29.445833206176758,33.43207550048828,896.162841796875,0.19922687973361938,357.4486095159682,146.68590759638087,-33.2591667175293,-22.827970504760742,21.508031845092773,-0.0034556991886347532,-0.044144339859485626,0.9886780977249146,['x'],['y'],['z'],2020-03-27 17:34:02.181216
30.407194137573242,29.454166412353516,33.36532974243164,896.1650390625,0.2024178320560583,357.4477589439731,146.68003363369468,-33.253570556640625,-22.894609451293945,22.07244110107422,-0.003208863316103816,-0.04390311613678932,0.987459659576416,['x'],['y'],['z'],2020-03-27 17:34:02.246529
30.38813018798828,29.454166412353516,32.490966796875,896.165771484375,0.20003657731538324,357.45050617412335,146.66996593485808,-33.23982620239258,-22.953542709350586,22.362842559814453,-0.004196206107735634,-0.042696982622146606,0.9898965954780579,['x'],['y'],['z'],2020-03-27 17:34:02.305659
30.330936431884766,29.447917938232422,32.490966796875,896.165771484375,0.20350692706355797,357.4531178677072,146.65432480165873,-33.4358024597168,-23.112199783325195,22.708600997924805,-0.002715192036703229,-0.04317943751811981,0.9869722723960876,['x'],['y'],['z'],2020-03-27 17:34:02.373190
30.330936431884766,29.452083587646484,31.019237518310547,896.166748046875,0.19791094774048124,357.4554461084405,146.64537725384602,-33.62522506713867,-23.031509399414062,22.010711669921875,-0.002221520757302642,-0.043420661240816116,0.9886780977249146,['x'],['y'],['z'],2020-03-27 17:34:02.433586
30.292804718017578,29.447917938232422,32.76795959472656,896.1708984375,0.19948386560114112,357.4552294633778,146.65667438673321,-34.02503967285156,-23.105833053588867,21.920007705688477,-0.003949370235204697,-0.043420661240816116,0.9886780977249146,['x'],['y'],['z'],2020-03-27 17:34:02.491109
30.311870574951172,29.454166412353516,32.03710174560547,896.17333984375,0.19737113601242542,357.453220960875,146.6749519729522,-33.99738311767578,-23.214542388916016,22.147991180419922,-0.003208863316103816,-0.04462679103016853,0.9891654849052429,['x'],['y'],['z'],2020-03-27 17:34:02.544950
30.311870574951172,29.450000762939453,32.03710174560547,896.175048828125,0.19804952587543845,357.45420280056817,146.67402306722505,-33.70169448852539,-23.25115203857422,21.804216384887695,-0.0034556991886347532,-0.04390311613678932,0.9881907105445862,['x'],['y'],['z'],2020-03-27 17:34:02.604810
30.369064331054688,29.447917938232422,32.56105041503906,896.173828125,0.19538113638535842,357.456004903292,146.65749400943363,-33.597782135009766,-23.191240310668945,21.40398406982422,-0.003949370235204697,-0.044144339859485626,0.988434374332428,['x'],['y'],['z'],2020-03-27 17:34:02.662197
30.273740768432617,29.447917938232422,31.983705520629883,896.165771484375,0.2006225995420424,357.45513640205036,146.65245332982616,-33.334556579589844,-22.806110382080078,22.160844802856445,-0.004196206107735634,-0.04438556358218193,0.9879470467567444,['x'],['y'],['z'],2020-03-27 17:34:02.719576
30.407194137573242,29.458332061767578,32.133880615234375,896.161865234375,0.20360975342707838,357.4538190293142,146.6713319726921,-33.57677459716797,-22.915563583374023,22.363239288330078,-0.0019746851176023483,-0.04366188496351242,0.9877033233642578,['x'],['y'],['z'],2020-03-27 17:34:02.773495
30.407194137573242,29.456249237060547,32.133880615234375,896.159423828125,0.2005719600926491,357.452988094113,146.66872284042913,-33.463523864746094,-23.100759506225586,22.156166076660156,-0.002715192036703229,-0.043420661240816116,0.9881907105445862,['x'],['y'],['z'],2020-03-27 17:34:02.834919
30.273740768432617,29.447917938232422,32.62445831298828,896.1630859375,0.20014027079276314,357.45407089253985,146.64943438621302,-33.47776412963867,-23.39079475402832,21.351486206054688,-0.003949370235204697,-0.04366188496351242,0.9894092082977295,['x'],['y'],['z'],2020-03-27 17:34:02.914201
30.38813018798828,29.456249237060547,31.70671272277832,896.163818359375,0.20297059713115329,357.45348584414876,146.61087113815913,-33.44203186035156,-23.33270835876465,22.09361457824707,-0.0024683563970029354,-0.04583292081952095,0.990384042263031,['x'],['y'],['z'],2020-03-27 17:34:02.989587
30.254676818847656,29.452083587646484,31.730073928833008,896.161376953125,0.20009676835744397,357.4461692174438,146.58592728731023,-33.149749755859375,-22.989450454711914,22.015377044677734,-0.0034556991886347532,-0.04390311613678932,0.987459659576416,['x'],['y'],['z'],2020-03-27 17:34:03.064733
30.407194137573242,29.456249237060547,32.407535552978516,896.15771484375,0.1956188056241337,357.4511704100201,146.55938517219556,-33.24459457397461,-23.006826400756836,21.826505661010742,-0.0034556991886347532,-0.043420661240816116,0.9864848256111145,['x'],['y'],['z'],2020-03-27 17:34:03.139960
30.273740768432617,29.454166412353516,32.50431823730469,896.157958984375,0.1987325981532926,357.45100861991415,146.56337400267086,-33.641258239746094,-22.940244674682617,21.828994750976562,-0.0029620276764035225,-0.044144339859485626,0.9886780977249146,['x'],['y'],['z'],2020-03-27 17:34:03.218950
30.273740768432617,29.452083587646484,33.09501266479492,896.15771484375,0.2005731873922656,357.4468306785762,146.58889158941003,-33.2371940612793,-22.689172744750977,21.56119155883789,-0.004196206107735634,-0.043420661240816116,0.9881907105445862,['x'],['y'],['z'],2020-03-27 17:34:03.294470
30.311870574951172,29.456249237060547,35.62131881713867,896.152099609375,0.20646692027447258,357.45387943379967,146.59931445808346,-33.500526428222656,-22.703454971313477,22.044466018676758,-0.004936712794005871,-0.043420661240816116,0.9881907105445862,['x'],['y'],['z'],2020-03-27 17:34:03.371825
30.311870574951172,29.458332061767578,35.62131881713867,896.14306640625,0.21446796661882683,357.457188873896,146.6434921216351,-33.35519027709961,-22.726587295532227,21.718978881835938,-0.002715192036703229,-0.04438556358218193,0.9898965954780579,['x'],['y'],['z'],2020-03-27 17:34:03.447100
30.292804718017578,29.452083587646484,32.56105041503906,896.140380859375,0.2159459021613412,357.45656519224735,146.65070480139863,-33.51507568359375,-22.7172794342041,21.456939697265625,-0.004443041514605284,-0.04366188496351242,0.990384042263031,['x'],['y'],['z'],2020-03-27 17:34:03.522305
30.369064331054688,29.452083587646484,32.20730209350586,896.139892578125,0.21317053750142853,357.45648216276027,146.66801250075545,-33.768348693847656,-22.798797607421875,22.33510398864746,-0.004689877387136221,-0.04366188496351242,0.9908714294433594,['x'],['y'],['z'],2020-03-27 17:34:03.597449
30.292804718017578,29.450000762939453,33.86258316040039,896.13720703125,0.21151398984407566,357.45248927686015,146.69985484266604,-33.45746612548828,-22.779550552368164,21.824748992919922,-0.003949370235204697,-0.044144339859485626,0.9906277060508728,['x'],['y'],['z'],2020-03-27 17:34:03.676397
30.38813018798828,29.454166412353516,32.04377746582031,896.135009765625,0.2107876419145271,357.45234072024573,146.70637084313424,-33.405452728271484,-22.705402374267578,21.811588287353516,-0.004443041514605284,-0.04390311613678932,0.9872159361839294,['x'],['y'],['z'],2020-03-27 17:34:03.751787
30.254676818847656,29.447917938232422,33.70573043823242,896.13427734375,0.2106806534044812,357.45338424508486,146.71718986277955,-33.44554901123047,-22.95290184020996,21.982166290283203,-0.003208863316103816,-0.04486801475286484,0.988434374332428,['x'],['y'],['z'],2020-03-27 17:34:03.827078
30.38813018798828,29.445833206176758,32.21397399902344,896.124755859375,0.20489362888784246,357.4465779615769,146.70762759794152,-33.44821548461914,-22.8524112701416,21.48788070678711,-0.0037025348283350468,-0.04366188496351242,0.9894092082977295,['x'],['y'],['z'],2020-03-27 17:34:03.907341
30.38813018798828,29.452083587646484,32.32744216918945,896.122314453125,0.20575647387908547,357.45524013554837,146.69153567225698,-33.28413009643555,-23.04296875,21.958101272583008,-0.0029620276764035225,-0.04462679103016853,0.9881907105445862,['x'],['y'],['z'],2020-03-27 17:34:03.982072
30.235610961914062,29.450000762939453,33.60227584838867,896.12890625,0.2086981242968189,357.4496856976493,146.66646887800303,-33.15214920043945,-23.136001586914062,22.358652114868164,-0.0034556991886347532,-0.04366188496351242,0.9872159361839294,['x'],['y'],['z'],2020-03-27 17:34:04.056774
30.311870574951172,29.462499618530273,32.33745574951172,896.11669921875,0.20842538363748117,357.44602642380147,146.62108910115745,-33.220191955566406,-23.35573959350586,22.39373016357422,-0.004196206107735634,-0.044144339859485626,0.9896529316902161,['x'],['y'],['z'],2020-03-27 17:34:04.131906
30.273740768432617,29.456249237060547,33.852569580078125,896.114013671875,0.20876727996216526,357.44548235654537,146.57023151259756,-33.08845138549805,-23.338359832763672,22.635046005249023,-0.004196206107735634,-0.04317943751811981,0.9881907105445862,['x'],['y'],['z'],2020-03-27 17:34:04.210892
30.350000381469727,29.458332061767578,34.10953903198242,896.11474609375,0.21143229437829994,357.4506395762556,146.53403150999648,-33.141841888427734,-23.102535247802734,22.224205017089844,-0.0037025348283350468,-0.043420661240816116,0.9879470467567444,['x'],['y'],['z'],2020-03-27 17:34:04.286275
30.292804718017578,29.458332061767578,32.78131103515625,896.108154296875,0.21607343459975006,357.4398660200569,146.51038539508988,-33.25596618652344,-23.047134399414062,22.018047332763672,-0.0037025348283350468,-0.04486801475286484,0.9896529316902161,['x'],['y'],['z'],2020-03-27 17:34:04.363599
30.292804718017578,29.443750381469727,33.51884460449219,896.106689453125,0.22007436464843047,357.4381828053133,146.51272131978604,-33.085453033447266,-22.84796142578125,21.724163055419922,-0.003949370235204697,-0.044144339859485626,0.9901403188705444,['x'],['y'],['z'],2020-03-27 17:34:04.438748
30.369064331054688,29.456249237060547,33.51884460449219,896.1015625,0.2245809954999563,357.44017337856957,146.5052354324557,-33.222957611083984,-22.939167022705078,21.883588790893555,-0.0034556991886347532,-0.043420661240816116,0.9869722723960876,['x'],['y'],['z'],2020-03-27 17:34:04.520160
30.330936431884766,29.454166412353516,33.36866760253906,896.099365234375,0.228286239722556,357.4463824474119,146.49997618679478,-33.28303146362305,-23.00832748413086,21.900754928588867,-0.004196206107735634,-0.04366188496351242,0.9898965954780579,['x'],['y'],['z'],2020-03-27 17:34:04.601925
30.273740768432617,29.458332061767578,32.404197692871094,896.097900390625,0.23113976469174038,357.4489892317973,146.50225746997756,-33.19498825073242,-22.881288528442383,22.17532730102539,-0.0029620276764035225,-0.04486801475286484,0.9867285490036011,['x'],['y'],['z'],2020-03-27 17:34:04.676925
30.311870574951172,29.450000762939453,32.52100372314453,896.10595703125,0.23499385901347875,357.4464703860975,146.5056452438059,-33.43910217285156,-22.841407775878906,21.923912048339844,-0.003208863316103816,-0.04438556358218193,0.9891654849052429,['x'],['y'],['z'],2020-03-27 17:34:04.751920
30.330936431884766,29.454166412353516,31.619943618774414,896.10693359375,0.23155920767588792,357.4473506267268,146.53610788750416,-33.599552154541016,-22.66121482849121,21.575267791748047,-0.003208863316103816,-0.043420661240816116,0.9879470467567444,['x'],['y'],['z'],2020-03-27 17:34:04.827067
30.369064331054688,29.456249237060547,31.733409881591797,896.110595703125,0.22560253566769634,357.4478475229889,146.5751355884216,-33.41814041137695,-22.741992950439453,20.82814598083496,-0.0034556991886347532,-0.04390311613678932,0.988434374332428,['x'],['y'],['z'],2020-03-27 17:34:04.906807
30.350000381469727,29.460416793823242,34.40989303588867,896.118408203125,0.22076202595963323,357.442141753711,146.59729272208912,-33.2265625,-22.537565231323242,21.461091995239258,-0.003208863316103816,-0.044144339859485626,0.987459659576416,['x'],['y'],['z'],2020-03-27 17:34:04.981684
30.235610961914062,29.452083587646484,31.59992027282715,896.116455078125,0.22596362855920785,357.44381877859564,146.6282744601643,-33.22531509399414,-22.43171501159668,21.652395248413086,-0.0037025348283350468,-0.04366188496351242,0.9886780977249146,['x'],['y'],['z'],2020-03-27 17:34:05.056810
30.369064331054688,29.456249237060547,33.48213577270508,896.122314453125,0.22529864561048366,357.44263907685996,146.66049929266845,-33.20710754394531,-22.34469985961914,20.891401290893555,-0.0037025348283350468,-0.04535046964883804,0.9901403188705444,['x'],['y'],['z'],2020-03-27 17:34:05.131795
30.273740768432617,29.452083587646484,32.24734878540039,896.12841796875,0.22639739893235655,357.4395550330063,146.6551307639808,-32.747596740722656,-22.707353591918945,20.490638732910156,-0.004936712794005871,-0.04510924220085144,0.9852663278579712,['x'],['y'],['z'],2020-03-27 17:34:05.210586
30.235610961914062,29.458332061767578,32.72791290283203,896.1240234375,0.22925740724516716,357.43007921274994,146.6193952142433,-33.33616256713867,-23.32494354248047,20.906400680541992,-0.004689877387136221,-0.04486801475286484,0.990384042263031,['x'],['y'],['z'],2020-03-27 17:34:05.285614
30.273740768432617,29.456249237060547,32.838043212890625,896.135009765625,0.2239707874667244,357.4341775396954,146.62320645980017,-33.7822380065918,-22.845542907714844,21.836395263671875,-0.002715192036703229,-0.044144339859485626,0.9872159361839294,['x'],['y'],['z'],2020-03-27 17:34:05.361661
30.330936431884766,29.458332061767578,31.282880783081055,896.1396484375,0.22329102356174946,357.4303144273895,146.65529468852088,-33.71306610107422,-22.7070369720459,22.089330673217773,-0.0029620276764035225,-0.044144339859485626,0.9881907105445862,['x'],['y'],['z'],2020-03-27 17:34:05.438662
30.273740768432617,29.456249237060547,33.084999084472656,896.142578125,0.2224711340570835,357.4387046744546,146.67145491609713,-33.108760833740234,-22.71831703186035,22.135997772216797,-0.004196206107735634,-0.04486801475286484,0.9906277060508728,['x'],['y'],['z'],2020-03-27 17:34:05.513744
30.273740768432617,29.456249237060547,33.084999084472656,896.140869140625,0.22691857438254026,357.4434379955494,146.6620292550425,-33.174808502197266,-22.83983039855957,22.22406768798828,-0.003949370235204697,-0.04390311613678932,0.9872159361839294,['x'],['y'],['z'],2020-03-27 17:34:05.591852
30.369064331054688,29.458332061767578,34.88044738769531,896.140380859375,0.228086510050186,357.4496069370304,146.6712363500437,-33.428611755371094,-22.82191276550293,22.399816513061523,-0.0034556991886347532,-0.04486801475286484,0.9911150336265564,['x'],['y'],['z'],2020-03-27 17:34:05.666209
30.292804718017578,29.462499618530273,33.32194519042969,896.141357421875,0.22778611512883767,357.44103846471666,146.67690540705482,-33.319454193115234,-22.843698501586914,22.23055076599121,-0.002715192036703229,-0.04535046964883804,0.9889218211174011,['x'],['y'],['z'],2020-03-27 17:34:05.741288
30.254676818847656,29.456249237060547,31.596582412719727,896.140869140625,0.22515350409062088,357.43716574745724,146.67947355818274,-33.29680633544922,-22.754709243774414,21.833778381347656,-0.0037025348283350468,-0.04366188496351242,0.9901403188705444,['x'],['y'],['z'],2020-03-27 17:34:05.820257
30.273740768432617,29.452083587646484,33.205142974853516,896.147216796875,0.22106762356413842,357.43581998674733,146.69467755927516,-33.37452697753906,-22.69738006591797,22.335115432739258,-0.0034556991886347532,-0.04390311613678932,0.9881907105445862,['x'],['y'],['z'],2020-03-27 17:34:05.895261
30.311870574951172,29.450000762939453,34.03278350830078,896.147705078125,0.21772592683228323,357.4382709574423,146.70204050320046,-33.17380905151367,-22.41631317138672,22.332365036010742,-0.0034556991886347532,-0.04510924220085144,0.988434374332428,['x'],['y'],['z'],2020-03-27 17:34:05.970573
30.311870574951172,29.456249237060547,32.89811325073242,896.14794921875,0.21851882908559975,357.4358703593925,146.7492917518786,-33.23471450805664,-22.299707412719727,21.90166664123535,-0.003949370235204697,-0.04366188496351242,0.9877033233642578,['x'],['y'],['z'],2020-03-27 17:34:06.049495
30.311870574951172,29.456249237060547,33.0416145324707,896.144287109375,0.22091389094696023,357.4414273586125,146.78506828275113,-33.395362854003906,-22.378864288330078,22.48920440673828,-0.0037025348283350468,-0.044144339859485626,0.9896529316902161,['x'],['y'],['z'],2020-03-27 17:34:06.124570
30.369064331054688,29.46666717529297,32.54770278930664,896.1337890625,0.22195705560033424,357.43935290209555,146.82622700268962,-33.46968078613281,-22.55083465576172,22.83193588256836,-0.0034556991886347532,-0.04390311613678932,0.9896529316902161,['x'],['y'],['z'],2020-03-27 17:34:06.199622
30.369064331054688,29.456249237060547,32.5310173034668,896.13037109375,0.21720928705459525,357.4366393960043,146.85193583472554,-33.573509216308594,-22.68744468688965,22.86181640625,-0.0029620276764035225,-0.043420661240816116,0.9901403188705444,['x'],['y'],['z'],2020-03-27 17:34:06.275763
30.350000381469727,29.456249237060547,31.696701049804688,896.13037109375,0.22033513913650746,357.4412371805328,146.8388765130325,-33.19801712036133,-23.00595474243164,22.960988998413086,-0.004443041514605284,-0.04366188496351242,0.9872159361839294,['x'],['y'],['z'],2020-03-27 17:34:06.351520
30.330936431884766,29.460416793823242,33.43207550048828,896.112548828125,0.21801076706501393,357.4455730699953,146.80920617127796,-33.197383880615234,-22.887126922607422,22.580636978149414,-0.0037025348283350468,-0.043420661240816116,0.9862411618232727,['x'],['y'],['z'],2020-03-27 17:34:06.430468
30.426258087158203,29.458332061767578,34.009422302246094,896.1005859375,0.21385894586457177,357.4399087087392,146.78490435821104,-32.9871711730957,-22.928186416625977,22.420377731323242,-0.0029620276764035225,-0.044144339859485626,0.9891654849052429,['x'],['y'],['z'],2020-03-27 17:34:06.505526
30.273740768432617,29.458332061767578,32.00706481933594,896.103515625,0.21389058885033596,357.4461602528205,146.7592911488235,-33.49467468261719,-22.862537384033203,22.687959671020508,-0.0034556991886347532,-0.0424557588994503,0.9886780977249146,['x'],['y'],['z'],2020-03-27 17:34:06.580698
30.273740768432617,29.456249237060547,32.00706481933594,896.104736328125,0.21006186761414714,357.44651584954414,146.76939982879512,-33.463199615478516,-22.87991714477539,22.534677505493164,-0.0034556991886347532,-0.04462679103016853,0.9881907105445862,['x'],['y'],['z'],2020-03-27 17:34:06.657909
30.369064331054688,29.454166412353516,33.22182846069336,896.10107421875,0.21383765488426837,357.43286144761964,146.75821197893464,-33.25629806518555,-22.916458129882812,22.560304641723633,-0.0029620276764035225,-0.042696982622146606,0.9889218211174011,['x'],['y'],['z'],2020-03-27 17:34:06.732902
30.407194137573242,29.450000762939453,33.01491928100586,896.099609375,0.20758676447345054,357.42935756057545,146.75114956333283,-33.11980438232422,-22.83396339416504,22.550167083740234,-0.0024683563970029354,-0.04486801475286484,0.9881907105445862,['x'],['y'],['z'],2020-03-27 17:34:06.811852
30.273740768432617,29.454166412353516,32.474281311035156,896.098876953125,0.20384406093212157,357.42535784448614,146.7296344674473,-32.99970626831055,-23.031808853149414,22.461801528930664,-0.002221520757302642,-0.04486801475286484,0.9896529316902161,['x'],['y'],['z'],2020-03-27 17:34:06.886985
30.330936431884766,29.452083587646484,32.92481231689453,896.10205078125,0.19955222085369415,357.4229920377124,146.68840744561712,-32.635807037353516,-22.831050872802734,22.31204605102539,-0.004196206107735634,-0.04438556358218193,0.9906277060508728,['x'],['y'],['z'],2020-03-27 17:34:06.962316
30.407194137573242,29.460416793823242,33.074989318847656,896.1064453125,0.20059127672139554,357.41746470712656,146.64480351795575,-32.561214447021484,-22.84589195251465,21.501331329345703,-0.004689877387136221,-0.04486801475286484,0.9896529316902161,['x'],['y'],['z'],2020-03-27 17:34:07.041244
30.254676818847656,29.447917938232422,33.3486442565918,896.10205078125,0.20377154353304308,357.41542760320664,146.60315302439702,-32.764713287353516,-22.87921714782715,21.19422149658203,-0.0029620276764035225,-0.04004349932074547,0.9852663278579712,['x'],['y'],['z'],2020-03-27 17:34:07.116228
30.330936431884766,29.458332061767578,32.68452835083008,896.099853515625,0.21031912028593333,357.42329747523434,146.5810368718645,-32.92464065551758,-22.68953514099121,21.452781677246094,-0.003208863316103816,-0.04390311613678932,0.9925772547721863,['x'],['y'],['z'],2020-03-27 17:34:07.192188
30.2165470123291,29.452083587646484,32.72457504272461,896.100830078125,0.2095580878020058,357.4197227249775,146.58760751384605,-33.162689208984375,-22.613059997558594,21.7839298248291,-0.0037025348283350468,-0.04438556358218193,0.9894092082977295,['x'],['y'],['z'],2020-03-27 17:34:07.267237
30.369064331054688,29.447917938232422,32.81801986694336,896.096435546875,0.20998123936542926,357.42176495153933,146.5964594390104,-33.24433135986328,-22.866729736328125,22.342819213867188,-0.0034556991886347532,-0.04293820634484291,0.9886780977249146,['x'],['y'],['z'],2020-03-27 17:34:07.346360
30.311870574951172,29.456249237060547,32.64448165893555,896.099853515625,0.21542851533171276,357.4238236132438,146.6020601941298,-33.32514572143555,-22.80265998840332,22.56529426574707,-0.0029620276764035225,-0.04510924220085144,0.9889218211174011,['x'],['y'],['z'],2020-03-27 17:34:07.421490
30.48345184326172,29.450000762939453,32.61111068725586,896.100830078125,0.22561913089294533,357.42824103808954,146.61442283652752,-33.26737594604492,-22.802297592163086,22.175344467163086,-0.0034556991886347532,-0.04366188496351242,0.990384042263031,['x'],['y'],['z'],2020-03-27 17:34:07.496556
30.369064331054688,29.454166412353516,32.97487258911133,896.095703125,0.2220908312585313,357.42824039775934,146.62449053536412,-33.05196762084961,-22.546897888183594,21.849956512451172,-0.0029620276764035225,-0.04510924220085144,0.9864848256111145,['x'],['y'],['z'],2020-03-27 17:34:07.571637
30.369064331054688,29.458332061767578,32.97487258911133,896.1044921875,0.2186122639390114,357.4251418397537,146.6438609518503,-33.02450180053711,-22.561351776123047,21.970518112182617,-0.0037025348283350468,-0.041973307728767395,0.9898965954780579,['x'],['y'],['z'],2020-03-27 17:34:07.648691
30.311870574951172,29.458332061767578,32.84805679321289,896.109619140625,0.21741760782428063,357.43090459842244,146.6410742346689,-33.12433624267578,-22.970989227294922,21.999731063842773,-0.0029620276764035225,-0.042696982622146606,0.9881907105445862,['x'],['y'],['z'],2020-03-27 17:34:07.727467
30.292804718017578,29.454166412353516,34.596778869628906,896.1015625,0.21867186801169033,357.43815804587757,146.64162064980252,-33.45256042480469,-22.64565086364746,21.312631607055664,-0.0029620276764035225,-0.04390311613678932,0.990384042263031,['x'],['y'],['z'],2020-03-27 17:34:07.802583
30.292804718017578,29.462499618530273,33.74577713012695,896.10107421875,0.21713735662489855,357.43952280305115,146.66011680207492,-33.203155517578125,-22.816986083984375,21.731840133666992,-0.003949370235204697,-0.04535046964883804,0.9898965954780579,['x'],['y'],['z'],2020-03-27 17:34:07.877547
30.254676818847656,29.454166412353516,32.6878662109375,896.09765625,0.21907159416069474,357.4338759441548,146.64928412205128,-32.943023681640625,-22.914915084838867,22.47623062133789,-0.0024683563970029354,-0.04366188496351242,0.9864848256111145,['x'],['y'],['z'],2020-03-27 17:34:07.952865
30.292804718017578,29.450000762939453,33.24852752685547,896.099365234375,0.22229429619060362,357.4360001329867,146.63539151727946,-33.01737594604492,-23.114315032958984,22.309871673583984,-0.0037025348283350468,-0.04317943751811981,0.988434374332428,['x'],['y'],['z'],2020-03-27 17:34:08.033326
30.292804718017578,29.452083587646484,31.57322120666504,896.10400390625,0.2203809227482877,357.44606889904037,146.58838615541143,-32.78535079956055,-22.948604583740234,22.36117172241211,-0.003949370235204697,-0.04390311613678932,0.9881907105445862,['x'],['y'],['z'],2020-03-27 17:34:08.114871
30.292804718017578,29.454166412353516,32.38084030151367,896.10546875,0.22368078457147655,357.44779096048484,146.5483066053618,-32.586856842041016,-23.014942169189453,22.130956649780273,-0.004689877387136221,-0.04486801475286484,0.9840478897094727,['x'],['y'],['z'],2020-03-27 17:34:08.190433
30.311870574951172,29.454166412353516,32.734588623046875,896.103271484375,0.23108960549002308,357.44147047418164,146.50682003634316,-32.68862533569336,-22.931747436523438,22.09330940246582,-0.004689877387136221,-0.04486801475286484,0.9855100512504578,['x'],['y'],['z'],2020-03-27 17:34:08.267993
30.330936431884766,29.464584350585938,33.45209884643555,896.107177734375,0.246579994279936,357.42858425509536,146.46626237305162,-32.69226837158203,-23.043306350708008,21.862869262695312,-0.0069113983772695065,-0.04366188496351242,0.9920898675918579,['x'],['y'],['z'],2020-03-27 17:34:08.344012
30.330936431884766,29.460416793823242,32.237335205078125,896.11279296875,0.2427035951216893,357.4279496878328,146.43417414433088,-33.19537353515625,-22.986942291259766,21.477176666259766,-0.005677219945937395,-0.041973307728767395,0.9889218211174011,['x'],['y'],['z'],2020-03-27 17:34:08.419198
30.292804718017578,29.458332061767578,33.108360290527344,896.11474609375,0.24299830711220477,357.41989518725404,146.43275346498353,-33.342586517333984,-23.004180908203125,21.730466842651367,-0.0029620276764035225,-0.0424557588994503,0.9867285490036011,['x'],['y'],['z'],2020-03-27 17:34:08.498138
30.254676818847656,29.445833206176758,31.997055053710938,896.117431640625,0.24139235888360552,357.4220129727836,146.4413048618244,-33.578800201416016,-22.95310401916504,22.110292434692383,-0.0037025348283350468,-0.042696982622146606,0.9908714294433594,['x'],['y'],['z'],2020-03-27 17:34:08.573679
30.369064331054688,29.454166412353516,34.78366470336914,896.118896484375,0.23773145752975802,357.4275234413399,146.45750607053566,-33.35095977783203,-23.174123764038086,22.120281219482422,-0.002715192036703229,-0.04390311613678932,0.988434374332428,['x'],['y'],['z'],2020-03-27 17:34:08.648859
30.2165470123291,29.447917938232422,33.52885437011719,896.1171875,0.23142633915219002,357.4293001442977,146.4410043335009,-33.18935012817383,-23.144084930419922,21.88837432861328,-0.0034556991886347532,-0.04390311613678932,0.9864848256111145,['x'],['y'],['z'],2020-03-27 17:34:08.723958
30.2165470123291,29.445833206176758,33.52885437011719,896.120849609375,0.2337321149664511,357.4280532078874,146.41412070892773,-32.85591125488281,-23.320987701416016,22.020790100097656,-0.002715192036703229,-0.043420661240816116,0.9864848256111145,['x'],['y'],['z'],2020-03-27 17:34:08.801177
30.369064331054688,29.441665649414062,33.986061096191406,896.12890625,0.23515479534579717,357.42966257121054,146.35867323324558,-33.047760009765625,-23.401643753051758,22.06918716430664,-0.003208863316103816,-0.04438556358218193,0.9881907105445862,['x'],['y'],['z'],2020-03-27 17:34:08.879496
30.292804718017578,29.441665649414062,33.004905700683594,896.125732421875,0.23575617215787564,357.4316179263039,146.34363315669322,-33.04905700683594,-23.046239852905273,22.206207275390625,-0.0034556991886347532,-0.04486801475286484,0.9901403188705444,['x'],['y'],['z'],2020-03-27 17:34:08.956402
30.350000381469727,29.43958282470703,34.189632415771484,896.140625,0.23777393276865905,357.43604346199925,146.318033607684,-32.779449462890625,-23.013540267944336,22.06983757019043,-0.003208863316103816,-0.0424557588994503,0.9877033233642578,['x'],['y'],['z'],2020-03-27 17:34:09.031987
30.292804718017578,29.43958282470703,33.59560012817383,896.146484375,0.2296760764969478,357.44253833156966,146.31918107946456,-33.25157928466797,-22.815025329589844,22.353288650512695,-0.004196206107735634,-0.04510924220085144,0.987459659576416,['x'],['y'],['z'],2020-03-27 17:34:09.107860
30.254676818847656,29.447917938232422,31.322927474975586,896.147216796875,0.225279435703443,357.4396681580144,146.35818145962534,-33.297733306884766,-22.595680236816406,22.829059600830078,-0.003208863316103816,-0.04486801475286484,0.9864848256111145,['x'],['y'],['z'],2020-03-27 17:34:09.184581
30.330936431884766,29.441665649414062,33.802513122558594,896.149169921875,0.22374844613294198,357.43955652711014,146.42529489840987,-33.30354309082031,-22.27493667602539,22.66558837890625,-0.003949370235204697,-0.04462679103016853,0.9891654849052429,['x'],['y'],['z'],2020-03-27 17:34:09.260113
30.235610961914062,29.433334350585938,32.72457504272461,896.145263671875,0.226303910718092,357.44280961814576,146.49485354491728,-33.14021682739258,-22.398635864257812,22.41704750061035,-0.0037025348283350468,-0.04366188496351242,0.984535276889801,['x'],['y'],['z'],2020-03-27 17:34:09.336342
30.330936431884766,29.441665649414062,33.592262268066406,896.145263671875,0.22659590130511006,357.4404783892047,146.54180426527196,-33.4282341003418,-22.641862869262695,22.625349044799805,-0.005924055352807045,-0.04390311613678932,0.9898965954780579,['x'],['y'],['z'],2020-03-27 17:34:09.413607
30.235610961914062,29.4375,34.987239837646484,896.146484375,0.23121033441968836,357.43596085939896,146.5815832869981,-33.52524185180664,-22.55156898498535,22.474056243896484,-0.003208863316103816,-0.04317943751811981,0.9898965954780579,['x'],['y'],['z'],2020-03-27 17:34:09.490449
30.273740768432617,29.43541717529297,33.01158142089844,896.149658203125,0.22262748135605331,357.4360991707297,146.63648434754666,-33.39691162109375,-22.623077392578125,22.200138092041016,-0.004936712794005871,-0.04583292081952095,0.9886780977249146,['x'],['y'],['z'],2020-03-27 17:34:09.567942
30.311870574951172,29.443750381469727,33.86925506591797,896.144775390625,0.2261101041003929,357.4407789175282,146.6488469899444,-33.19150161743164,-22.8996524810791,22.02679443359375,-0.0037025348283350468,-0.043420661240816116,0.9877033233642578,['x'],['y'],['z'],2020-03-27 17:34:09.643401
30.311870574951172,29.441665649414062,34.623477935791016,896.144775390625,0.2239104897029579,357.4387932534704,146.64498110287417,-33.587406158447266,-22.882383346557617,22.45916175842285,-0.0034556991886347532,-0.04390311613678932,0.9872159361839294,['x'],['y'],['z'],2020-03-27 17:34:09.702381
30.311870574951172,29.445833206176758,34.623477935791016,896.145751953125,0.21679851520904245,357.4319402258553,146.67174178404227,-33.7403450012207,-22.947153091430664,22.60131072998047,-0.004196206107735634,-0.04631537199020386,0.9881907105445862,['x'],['y'],['z'],2020-03-27 17:34:09.756734
30.292804718017578,29.443750381469727,31.219472885131836,896.146240234375,0.21473343686195817,357.4295473117683,146.69258752138916,-33.66639709472656,-22.886552810668945,23.09920883178711,-0.003949370235204697,-0.04438556358218193,0.9894092082977295,['x'],['y'],['z'],2020-03-27 17:34:09.815423
30.330936431884766,29.445833206176758,32.92815017700195,896.146728515625,0.20946390589665367,357.4281776453963,146.7164248815925,-33.542640686035156,-23.00033187866211,22.394956588745117,-0.0034556991886347532,-0.04535046964883804,0.9859974384307861,['x'],['y'],['z'],2020-03-27 17:34:09.872800
30.330936431884766,29.445833206176758,32.92815017700195,896.14013671875,0.2111841130515052,357.42214210604754,146.69449997435675,-33.172584533691406,-22.979787826538086,22.160259246826172,-0.004443041514605284,-0.042696982622146606,0.987459659576416,['x'],['y'],['z'],2020-03-27 17:34:09.925617
30.369064331054688,29.445833206176758,32.67451858520508,896.144775390625,0.21324769729470852,357.4277181017312,146.6869731058914,-33.056861877441406,-22.709909439086914,22.036222457885742,-0.003949370235204697,-0.04293820634484291,0.9891654849052429,['x'],['y'],['z'],2020-03-27 17:34:09.990348
30.292804718017578,29.443750381469727,31.833528518676758,896.1484375,0.21823217458387076,357.4333547153438,146.66645521762467,-32.9769401550293,-23.018043518066406,22.103309631347656,-0.003949370235204697,-0.043420661240816116,0.9886780977249146,['x'],['y'],['z'],2020-03-27 17:34:10.044302
30.292804718017578,29.43958282470703,31.833528518676758,896.148681640625,0.21855089895818708,357.4300168872738,146.63653898906003,-33.05115509033203,-22.843257904052734,22.247133255004883,-0.0034556991886347532,-0.04535046964883804,0.9877033233642578,['x'],['y'],['z'],2020-03-27 17:34:10.100645
30.254676818847656,29.441665649414062,33.27522277832031,896.14501953125,0.21897303666540557,357.4300858294957,146.64006336667177,-33.43511962890625,-22.678499221801758,22.542682647705078,-0.003949370235204697,-0.04535046964883804,0.9864848256111145,['x'],['y'],['z'],2020-03-27 17:34:10.161533
30.292804718017578,29.450000762939453,32.31409454345703,896.1474609375,0.21216200404158062,357.42679325142893,146.66013046245325,-33.377559661865234,-22.859996795654297,22.670242309570312,-0.004196206107735634,-0.04390311613678932,0.9867285490036011,['x'],['y'],['z'],2020-03-27 17:34:10.229398
30.254676818847656,29.441665649414062,32.84138107299805,896.15087890625,0.21686628349221368,357.4294435782703,146.66642789686802,-33.34309387207031,-22.745044708251953,22.99408531188965,-0.004196206107735634,-0.04462679103016853,0.9889218211174011,['x'],['y'],['z'],2020-03-27 17:34:10.297240
30.273740768432617,29.454166412353516,32.808006286621094,896.150390625,0.21064676926289558,357.42464067462333,146.68447325665517,-33.502376556396484,-22.788442611694336,23.182104110717773,-0.0037025348283350468,-0.04535046964883804,0.9898965954780579,['x'],['y'],['z'],2020-03-27 17:34:10.369156
30.273740768432617,29.447917938232422,32.808006286621094,896.15478515625,0.21596468518155876,357.42352585968473,146.70467695622008,-33.406490325927734,-22.788841247558594,22.632877349853516,-0.005183548666536808,-0.041973307728767395,0.9925772547721863,['x'],['y'],['z'],2020-03-27 17:34:10.446386
30.311870574951172,29.447917938232422,33.178443908691406,896.1591796875,0.21554126681387087,357.427170832824,146.71828269304675,-33.48158645629883,-22.73210906982422,22.73780059814453,-0.0029620276764035225,-0.04293820634484291,0.988434374332428,['x'],['y'],['z'],2020-03-27 17:34:10.521389
30.311870574951172,29.443750381469727,31.94365692138672,896.16259765625,0.2150584044560627,357.42307207899177,146.73083658074123,-33.30147171020508,-22.758466720581055,22.783077239990234,-0.003208863316103816,-0.04438556358218193,0.9886780977249146,['x'],['y'],['z'],2020-03-27 17:34:10.596496
30.311870574951172,29.443750381469727,32.330780029296875,896.16162109375,0.21095642229222047,357.4260730933583,146.73179280722502,-33.27094650268555,-22.96255111694336,22.732933044433594,-0.0034556991886347532,-0.044144339859485626,0.9879470467567444,['x'],['y'],['z'],2020-03-27 17:34:10.675348
30.311870574951172,29.4375,32.470943450927734,896.1640625,0.20756819489664458,357.42564257799717,146.71220382468542,-33.128597259521484,-22.910966873168945,23.055997848510742,-0.0034556991886347532,-0.043420661240816116,0.9894092082977295,['x'],['y'],['z'],2020-03-27 17:34:10.750439
30.369064331054688,29.433334350585938,31.753433227539062,896.155517578125,0.20706270753721073,357.4282418918632,146.6862627662177,-33.31210708618164,-23.198631286621094,22.83075714111328,-0.004443041514605284,-0.042696982622146606,0.9896529316902161,['x'],['y'],['z'],2020-03-27 17:34:10.827274
30.38813018798828,29.433334350585938,33.0416145324707,896.153564453125,0.21072931850231755,357.4274094625581,146.65364178274174,-33.14581298828125,-23.203516006469727,22.276100158691406,-0.005183548666536808,-0.04486801475286484,0.9877033233642578,['x'],['y'],['z'],2020-03-27 17:34:10.901959
30.311870574951172,29.4375,31.4464054107666,896.152099609375,0.20729909611551664,357.43153852535477,146.61378079874555,-32.99635314941406,-23.215682983398438,22.630929946899414,-0.002221520757302642,-0.044144339859485626,0.9894092082977295,['x'],['y'],['z'],2020-03-27 17:34:10.981187
30.311870574951172,29.4375,34.479976654052734,896.149658203125,0.2051388753677282,357.43187726004896,146.57569566393354,-33.10247802734375,-22.749238967895508,22.303213119506836,-0.003949370235204697,-0.043420661240816116,0.9906277060508728,['x'],['y'],['z'],2020-03-27 17:34:11.056409
30.273740768432617,29.43958282470703,33.852569580078125,896.151611328125,0.2090249061599217,357.42913600631425,146.5961179295519,-33.25777816772461,-22.90017318725586,21.946815490722656,-0.004196206107735634,-0.04390311613678932,0.990384042263031,['x'],['y'],['z'],2020-03-27 17:34:11.131396
30.292804718017578,29.445833206176758,32.764625549316406,896.1552734375,0.20430264410186444,357.42416426892873,146.58423340039607,-33.06853103637695,-22.855594635009766,22.16937255859375,-0.0034556991886347532,-0.04317943751811981,0.9881907105445862,['x'],['y'],['z'],2020-03-27 17:34:11.206421
30.330936431884766,29.4375,33.31527328491211,896.15185546875,0.2020931712868579,357.42518943763446,146.54866177519864,-33.154762268066406,-23.317527770996094,22.286691665649414,-0.004936712794005871,-0.04390311613678932,0.987459659576416,['x'],['y'],['z'],2020-03-27 17:34:11.285302
30.254676818847656,29.441665649414062,32.52100372314453,896.141357421875,0.2028099809639522,357.42708332102524,146.51862260322892,-33.20212173461914,-22.969284057617188,22.25896453857422,-0.003949370235204697,-0.04293820634484291,0.9867285490036011,['x'],['y'],['z'],2020-03-27 17:34:11.371122
30.19748306274414,29.43958282470703,33.618961334228516,896.138916015625,0.20790778336444113,357.4305137835359,146.53159996265197,-33.2829475402832,-22.977642059326172,22.088979721069336,-0.003208863316103816,-0.0424557588994503,0.9898965954780579,['x'],['y'],['z'],2020-03-27 17:34:11.448231
30.254676818847656,29.4375,32.20730209350586,896.131591796875,0.20500461946185516,357.4308158059632,146.52614947169428,-33.10832595825195,-23.022136688232422,22.12204360961914,-0.003208863316103816,-0.04559169337153435,0.9864848256111145,['x'],['y'],['z'],2020-03-27 17:34:11.523704
30.254676818847656,29.441665649414062,32.20730209350586,896.12890625,0.20846849920661686,357.42176708597344,146.51131430081702,-33.18971633911133,-22.995582580566406,21.96316909790039,-0.006170891225337982,-0.04390311613678932,0.991358757019043,['x'],['y'],['z'],2020-03-27 17:34:11.597587
30.350000381469727,29.4375,31.40302276611328,896.12255859375,0.20514442489642887,357.4289039933259,146.48734033683027,-32.976722717285156,-23.01638412475586,21.988536834716797,-0.002221520757302642,-0.04293820634484291,0.9886780977249146,['x'],['y'],['z'],2020-03-27 17:34:11.673115
30.273740768432617,29.427082061767578,32.15724182128906,896.115478515625,0.20551496265890204,357.42742696491786,146.47408976984045,-33.330482482910156,-23.343549728393555,21.867433547973633,-0.004689877387136221,-0.041973307728767395,0.990384042263031,['x'],['y'],['z'],2020-03-27 17:34:11.752130
30.350000381469727,29.43958282470703,32.70121765136719,896.116943359375,0.21106394441079526,357.42513031380946,146.45413195708568,-33.02338790893555,-22.993762969970703,22.285913467407227,-0.003208863316103816,-0.04583292081952095,0.9886780977249146,['x'],['y'],['z'],2020-03-27 17:34:11.827694
30.330936431884766,29.443750381469727,31.94365692138672,896.1142578125,0.21030449941224125,357.42033125214385,146.44370908841222,-32.95246124267578,-22.877492904663086,22.65457534790039,-0.0034556991886347532,-0.044144339859485626,0.9891654849052429,['x'],['y'],['z'],2020-03-27 17:34:11.902797
30.292804718017578,29.43958282470703,31.095993041992188,896.109619140625,0.20924187138777536,357.4268592054431,146.4482033528861,-33.146156311035156,-22.73832130432129,22.33049774169922,-0.002715192036703229,-0.04366188496351242,0.987459659576416,['x'],['y'],['z'],2020-03-27 17:34:11.978343
30.292804718017578,29.433334350585938,32.80467224121094,896.11083984375,0.21412788456314102,357.4316510100327,146.46333905208684,-33.02720260620117,-22.72825813293457,22.275577545166016,-0.004936712794005871,-0.04390311613678932,0.9901403188705444,['x'],['y'],['z'],2020-03-27 17:34:12.057392
30.369064331054688,29.429166793823242,32.994895935058594,896.1142578125,0.20896482183956672,357.4318966833994,146.47432199627224,-33.08335494995117,-22.856483459472656,21.59292984008789,-0.0034556991886347532,-0.04293820634484291,0.9867285490036011,['x'],['y'],['z'],2020-03-27 17:34:12.132516
30.292804718017578,29.424999237060547,33.66568374633789,896.111572265625,0.20927570216850808,357.4332913226506,146.490181695525,-33.45518112182617,-22.590831756591797,21.77609634399414,-0.0024683563970029354,-0.04535046964883804,0.9886780977249146,['x'],['y'],['z'],2020-03-27 17:34:12.207636
30.330936431884766,29.427082061767578,32.90812683105469,896.109375,0.2037311493674048,357.42859321971866,146.54804705817335,-33.276336669921875,-22.447357177734375,21.655479431152344,-0.0034556991886347532,-0.0424557588994503,0.9894092082977295,['x'],['y'],['z'],2020-03-27 17:34:12.282824
30.2165470123291,29.427082061767578,34.216331481933594,896.111572265625,0.20414837787615736,357.4309884816832,146.57922004154528,-33.19866180419922,-22.65987205505371,21.43025016784668,-0.003208863316103816,-0.04317943751811981,0.9872159361839294,['x'],['y'],['z'],2020-03-27 17:34:12.361819
30.350000381469727,29.424999237060547,33.27522277832031,896.112060546875,0.20615956176182199,357.43729488072125,146.5830859286155,-33.28005599975586,-22.971620559692383,20.724531173706055,-0.003949370235204697,-0.04462679103016853,0.987459659576416,['x'],['y'],['z'],2020-03-27 17:34:12.436877
30.350000381469727,29.427082061767578,32.78464889526367,896.110595703125,0.20819443786617012,357.44085959913775,146.5662290217439,-33.419837951660156,-22.692190170288086,21.056432723999023,-0.0034556991886347532,-0.044144339859485626,0.9901403188705444,['x'],['y'],['z'],2020-03-27 17:34:12.511967
30.350000381469727,29.424999237060547,32.78464889526367,896.111572265625,0.20495872912836913,357.4408013290864,146.6073877416824,-33.70029830932617,-22.752742767333984,21.37584686279297,-0.005924055352807045,-0.04462679103016853,0.9918461441993713,['x'],['y'],['z'],2020-03-27 17:34:12.589089
30.254676818847656,29.424999237060547,33.682369232177734,896.1162109375,0.20015281059319245,357.44204335629826,146.643929253742,-33.81022644042969,-22.87445640563965,21.059133529663086,-0.0034556991886347532,-0.04631537199020386,0.9808798432350159,['x'],['y'],['z'],2020-03-27 17:34:12.664229
30.292804718017578,29.427082061767578,32.64448165893555,896.1298828125,0.21785586050907216,357.44277909573793,146.64715310303023,-33.734683990478516,-23.2172794342041,21.485023498535156,-0.0017278495943173766,-0.0424557588994503,0.9916024804115295,['x'],['y'],['z'],2020-03-27 17:34:12.743239
30.350000381469727,29.424999237060547,32.968196868896484,896.12744140625,0.22141943166724698,357.4416416557977,146.62625272417,-33.67793655395508,-23.261816024780273,21.94731903076172,-0.004196206107735634,-0.04293820634484291,0.9872159361839294,['x'],['y'],['z'],2020-03-27 17:34:12.818798
30.235610961914062,29.422916412353516,32.577735900878906,896.116455078125,0.21731206005726278,357.44289029975533,146.60943679843342,-33.35174560546875,-23.380096435546875,21.794536590576172,-0.004689877387136221,-0.04366188496351242,0.9894092082977295,['x'],['y'],['z'],2020-03-27 17:34:12.893428
30.369064331054688,29.418750762939453,32.901451110839844,896.103271484375,0.2171065674127806,357.4404935436869,146.5429107559175,-32.67498016357422,-23.323081970214844,21.988893508911133,-0.002715192036703229,-0.0422145314514637,0.991358757019043,['x'],['y'],['z'],2020-03-27 17:34:12.972784
30.330936431884766,29.422916412353516,32.10050964355469,896.107421875,0.2129008517509188,357.4452245169042,146.4693359581781,-32.679508209228516,-23.12175750732422,21.811717987060547,-0.004689877387136221,-0.04366188496351242,0.988434374332428,['x'],['y'],['z'],2020-03-27 17:34:13.048007
30.254676818847656,29.420833587646484,33.09501266479492,896.10791015625,0.20305592113492557,357.4437820663289,146.4312371629878,-32.58125686645508,-23.03840446472168,21.305910110473633,-0.005183548666536808,-0.04438556358218193,0.9850226640701294,['x'],['y'],['z'],2020-03-27 17:34:13.123307
30.311870574951172,29.418750762939453,32.58441162109375,896.105224609375,0.2020475477576363,357.44149694116464,146.40573323662696,-33.018585205078125,-22.875185012817383,21.96205711364746,-0.003208863316103816,-0.043420661240816116,0.9869722723960876,['x'],['y'],['z'],2020-03-27 17:34:13.198436
30.254676818847656,29.414583206176758,32.75461196899414,896.106201171875,0.21125673717228946,357.44803065743605,146.39689497184096,-32.8129997253418,-22.949121475219727,22.37428855895996,-0.003949370235204697,-0.04366188496351242,0.9867285490036011,['x'],['y'],['z'],2020-03-27 17:34:13.273781
30.2165470123291,29.410415649414062,33.408714294433594,896.104248046875,0.21083171797901484,357.440498239442,146.3755438004955,-32.829830169677734,-23.215721130371094,22.08394432067871,-0.0074050696566700935,-0.04173208028078079,0.9908714294433594,['x'],['y'],['z'],2020-03-27 17:34:13.352734
30.292804718017578,29.410415649414062,32.24734878540039,896.1025390625,0.2099044530981195,357.4486080218643,146.32740462722526,-32.82450485229492,-23.16063117980957,21.661466598510742,-0.0024683563970029354,-0.0424557588994503,0.9896529316902161,['x'],['y'],['z'],2020-03-27 17:34:13.427649
30.2165470123291,29.40625,33.96269989013672,896.102783203125,0.2126874617002088,357.4475139109366,146.2950022098027,-32.860870361328125,-23.28727912902832,21.374422073364258,-0.0012341781985014677,-0.04438556358218193,0.9908714294433594,['x'],['y'],['z'],2020-03-27 17:34:13.502834
30.2165470123291,29.402084350585938,33.96269989013672,896.10205078125,0.20903723251693945,357.4475888295741,146.25204031992334,-32.91999053955078,-23.186986923217773,21.18500518798828,-0.015797480940818787,-0.0352189801633358,0.9879470467567444,['x'],['y'],['z'],2020-03-27 17:34:13.581047
30.254676818847656,29.40833282470703,32.464271545410156,896.099365234375,0.22238442267113606,357.4589098681234,146.22900892204206,-32.85807418823242,-22.945926666259766,21.519529342651367,-0.012835453264415264,-0.040525950491428375,0.9964764714241028,['x'],['y'],['z'],2020-03-27 17:34:13.655409
30.311870574951172,29.412500381469727,31.70671272277832,896.09912109375,0.21842774210971527,357.45315906228564,146.21611352488907,-32.88547134399414,-23.279447555541992,21.929168701171875,-0.0037025348283350468,-0.0422145314514637,0.9935520887374878,['x'],['y'],['z'],2020-03-27 17:34:13.734202
30.273740768432617,29.40833282470703,30.52865982055664,896.102783203125,0.23063438405401232,357.4247147394871,146.17300137084794,-33.013370513916016,-23.450010299682617,21.832563400268555,-0.0017278495943173766,-0.04607414826750755,1.0030561685562134,['x'],['y'],['z'],2020-03-27 17:34:13.809329
30.273740768432617,29.414583206176758,34.5,896.101318359375,0.2124164285881636,357.4209352969986,146.1365008399234,-32.983158111572266,-23.460636138916016,22.450260162353516,-0.0029620276764035225,-0.04510924220085144,0.9784428477287292,['x'],['y'],['z'],2020-03-27 17:34:13.885116
30.235610961914062,29.416667938232422,32.63447189331055,896.092529296875,0.2076156326948644,357.41413434957593,146.11198046080304,-32.922122955322266,-23.0041561126709,21.990131378173828,-0.0019746851176023483,-0.048968859016895294,0.991358757019043,['x'],['y'],['z'],2020-03-27 17:34:13.960491
30.350000381469727,29.412500381469727,31.386335372924805,896.091552734375,0.1985186211332008,357.4022884536776,146.08647653444223,-32.77577590942383,-23.28300666809082,21.603567123413086,0.005576256196945906,-0.04559169337153435,0.9808798432350159,['x'],['y'],['z'],2020-03-27 17:34:14.040259
30.350000381469727,29.40833282470703,34.11955261230469,896.092041015625,0.14151990543686427,357.37266912489844,146.04703902217457,-32.225608825683594,-23.30479621887207,21.271034240722656,0.0026669050566852093,-0.04776272922754288,0.9850226640701294,['x'],['y'],['z'],2020-03-27 17:34:14.115773
30.235610961914062,29.402084350585938,32.601097106933594,896.101806640625,0.3642568699228361,357.0740596576878,145.92830301364307,-32.73394012451172,-23.38367462158203,21.380199432373047,-0.229063481092453,-0.15076619386672974,0.9172748923301697,['x'],['y'],['z'],2020-03-27 17:34:14.191102
30.273740768432617,29.399999618530273,33.02159118652344,896.119140625,0.888177309100948,356.7652490895084,145.72786428225987,-33.212791442871094,-23.396596908569336,21.49985694885254,0.0768553614616394,-0.08177557587623596,1.0671484470367432,['x'],['y'],['z'],2020-03-27 17:34:14.266443
30.19748306274414,29.389583587646484,33.25519943237305,896.116943359375,0.5014028529493137,357.0390493886628,145.8345928182305,-33.29081344604492,-23.34255027770996,21.921388626098633,-0.005430384073406458,-0.03328917175531387,1.0006192922592163,['x'],['y'],['z'],2020-03-27 17:34:14.341652
30.311870574951172,29.389583587646484,34.61346435546875,896.11865234375,0.4571954674026112,357.06727663951176,145.88034142529125,-33.51528549194336,-23.082963943481445,21.937803268432617,-0.006664562504738569,-0.04776272922754288,0.9857537150382996,['x'],['y'],['z'],2020-03-27 17:34:14.421551
30.292804718017578,29.381250381469727,33.88594436645508,896.118896484375,0.4735532368562628,357.0738039524808,145.9503918454189,-33.55998611450195,-23.256711959838867,21.743295669555664,-0.009873425588011742,-0.04993376135826111,0.9872159361839294,['x'],['y'],['z'],2020-03-27 17:34:14.497103
30.12122344970703,29.383333206176758,32.71122741699219,896.1259765625,0.4737671605155017,357.07202020589034,146.01406286886174,-33.375213623046875,-23.186355590820312,21.424394607543945,-0.01727849617600441,-0.05210479348897934,0.9643084406852722,['x'],['y'],['z'],2020-03-27 17:34:14.572289
30.12122344970703,29.364582061767578,32.71122741699219,896.1328125,0.4699950818246564,357.09296092555536,146.03221751167564,-33.30931091308594,-23.67393684387207,21.659526824951172,-0.008392412215471268,-0.04655659571290016,0.9891654849052429,['x'],['y'],['z'],2020-03-27 17:34:14.646825
30.2165470123291,29.360416412353516,33.34196853637695,896.13720703125,0.47487968093742045,357.09904769132294,146.0243218129951,-33.37424087524414,-23.397682189941406,21.701744079589844,-0.009132918901741505,-0.04872762784361839,0.9850226640701294,['x'],['y'],['z'],2020-03-27 17:34:14.725101
30.159351348876953,29.34375,31.20612335205078,896.146240234375,0.49804848301489707,357.08752473530626,146.04859630530532,-33.49409484863281,-23.087238311767578,21.55996322631836,-0.009626590646803379,-0.04993376135826111,0.9869722723960876,['x'],['y'],['z'],2020-03-27 17:34:14.800678
30.025897979736328,29.34375,32.500980377197266,896.145263671875,0.5419735896498077,357.0452610188261,146.09113472345618,-33.55094528198242,-23.19957733154297,22.495763778686523,-0.009873425588011742,-0.051139891147613525,0.9862411618232727,['x'],['y'],['z'],2020-03-27 17:34:14.877265
30.064029693603516,29.331249237060547,32.91813659667969,896.148193359375,0.5687290414543343,357.0215766975489,146.12535397119794,-33.22649383544922,-22.835512161254883,22.040943145751953,-0.025917742401361465,-0.01519723143428564,0.9840478897094727,['x'],['y'],['z'],2020-03-27 17:34:14.952504
30.2165470123291,29.327083587646484,34.00608444213867,896.14892578125,0.4175890947159849,357.198360776289,146.2023028823873,-32.62921905517578,-22.95482635498047,21.746532440185547,0.09358412027359009,0.12819448113441467,1.0669047832489014,['x'],['y'],['z'],2020-03-27 17:34:15.037323
30.12122344970703,29.325000762939453,32.31743240356445,896.151123046875,359.91189746326717,357.9008536298311,144.79156829045618,-32.83210372924805,-22.61440086364746,22.17903709411621,0.021820131689310074,-0.04655659571290016,1.044240951538086,['x'],['y'],['z'],2020-03-27 17:34:15.115697
30.083093643188477,29.3125,32.801334381103516,896.150146484375,1.2305477983238304,357.8343192630221,145.32971889516148,-33.06700897216797,-22.28653335571289,22.405231475830078,0.037094224244356155,0.0866769552230835,0.9384765625,['x'],['y'],['z'],2020-03-27 17:34:15.191419
30.083093643188477,29.302082061767578,31.71338653564453,896.16064453125,5.679103792492849,357.6869291168185,149.66702562190298,-34.76899719238281,-22.722698211669922,22.708145141601562,-0.11329755932092667,0.05681345984339714,1.0186527967453003,['x'],['y'],['z'],2020-03-27 17:34:15.267113
30.083093643188477,29.302082061767578,31.312915802001953,896.1572265625,11.986723299957564,4.742691687473271,150.0122780240688,-38.045753479003906,-21.297060012817383,24.038230895996094,-0.5114434361457825,0.13717781007289886,0.8738968968391418,['x'],['y'],['z'],2020-03-27 17:34:15.342750
30.083093643188477,29.293750762939453,33.46544647216797,896.16357421875,13.957733186862946,6.010796134722063,145.72081552703642,-42.768707275390625,-18.136268615722656,24.848588943481445,-0.16612039506435394,-0.054517049342393875,0.8444095849990845,['x'],['y'],['z'],2020-03-27 17:34:15.418299
30.140287399291992,29.285415649414062,32.89811325073242,896.166015625,10.579136571460179,7.3573038965666075,145.36305021831114,-43.30986785888672,-15.183774948120117,25.1643123626709,-0.19771535694599152,0.09153279662132263,1.008173942565918,['x'],['y'],['z'],2020-03-27 17:34:15.497776
30.102157592773438,29.274999618530273,32.394187927246094,896.165283203125,6.481235659090446,4.593938705086855,147.43354010293046,-40.496681213378906,-15.058804512023926,24.84005355834961,-0.04986079782247543,0.19593361020088196,0.8989976644515991,['x'],['y'],['z'],2020-03-27 17:34:15.573088
30.12122344970703,29.274999618530273,34.61012649536133,896.16552734375,0.35502739004387124,4.32247027520376,148.75294140528018,-37.21867752075195,-16.374553680419922,24.028772354125977,0.05285320803523064,0.14907462894916534,0.9362832903862,['x'],['y'],['z'],2020-03-27 17:34:15.648148
30.064029693603516,29.262500762939453,32.92481231689453,896.1650390625,355.4603203176797,4.490211183482811,149.31211533225078,-32.91853332519531,-16.97597312927246,22.284563064575195,0.09455391019582748,0.057056255638599396,0.9238547682762146,['x'],['y'],['z'],2020-03-27 17:34:15.723288
30.064029693603516,29.262500762939453,32.92481231689453,896.1640625,358.2545244535923,5.464610239345061,149.91082239413743,-30.95908546447754,-16.852869033813477,22.402727127075195,-0.00024683563970029354,0.05487111955881119,0.9716193079948425,['x'],['y'],['z'],2020-03-27 17:34:15.800460
29.94964027404785,29.256250381469727,32.49430465698242,896.16357421875,355.55294024414604,3.3766094572411154,149.49848387394374,-30.30912208557129,-17.202919006347656,22.24863052368164,0.06497550755739212,-0.0492100827395916,0.8592751026153564,['x'],['y'],['z'],2020-03-27 17:34:15.875855
30.140287399291992,29.25208282470703,31.930309295654297,896.15625,350.7341021927109,1.8657609406637168,148.4533966290401,-28.126052856445312,-17.61406898498535,20.867652893066406,0.26887252926826477,-0.0016885813092812896,1.0683670043945312,['x'],['y'],['z'],2020-03-27 17:34:15.954657
30.083093643188477,29.24791717529297,33.87259292602539,896.15185546875,347.2877765677246,2.0773525171878955,148.58371663840396,-25.04951286315918,-17.838336944580078,18.220985412597656,0.21941354870796204,0.09663144499063492,1.0018377304077148,['x'],['y'],['z'],2020-03-27 17:34:16.029890
30.12122344970703,29.245834350585938,32.774635314941406,896.14990234375,354.7379364591707,1.3036596373035279,148.84234858151564,-25.028928756713867,-18.230392456054688,19.665145874023438,-0.07256968319416046,0.043702661991119385,0.9550479650497437,['x'],['y'],['z'],2020-03-27 17:34:16.104904
30.044963836669922,29.241666793823242,31.019237518310547,896.1455078125,356.94003384381244,2.1808125941972523,148.8845181694513,-27.54877281188965,-18.66781234741211,20.97770881652832,0.14231574535369873,-0.011820068582892418,0.9830730557441711,['x'],['y'],['z'],2020-03-27 17:34:16.180145
30.064029693603516,29.233333587646484,32.641143798828125,896.147705078125,356.959064244944,3.1027446981764033,149.14218022570086,-28.892133712768555,-17.97858238220215,21.406259536743164,0.05891435965895653,0.09347514063119888,0.9596782326698303,['x'],['y'],['z'],2020-03-27 17:34:16.259086
30.006834030151367,29.229167938232422,32.92481231689453,896.146240234375,359.4936527837827,6.400218943363517,149.4919815338539,-29.99679183959961,-16.786176681518555,22.461565017700195,-0.009379754774272442,0.11969674378633499,0.9855100512504578,['x'],['y'],['z'],2020-03-27 17:34:16.334180
30.064029693603516,29.239582061767578,33.66902160644531,896.149658203125,1.1358713445871103,7.402723800773546,149.10256512851478,-32.18429183959961,-15.808876991271973,22.777446746826172,-0.026905084028840065,0.1291656494140625,0.9660142660140991,['x'],['y'],['z'],2020-03-27 17:34:16.409325
30.064029693603516,29.229167938232422,32.11385726928711,896.15185546875,1.6090352606606824,6.618239008557147,148.96497779787404,-33.02177047729492,-15.108048439025879,23.16960906982422,-0.1049051508307457,0.16922642290592194,0.9336026310920715,['x'],['y'],['z'],2020-03-27 17:34:16.488324
30.140287399291992,29.235416412353516,32.771297454833984,896.15380859375,1.765897491860901,6.329710473674652,149.2986052180725,-33.28919219970703,-15.265442848205566,23.3164119720459,-0.026164578273892403,0.11508367955684662,1.006224274635315,['x'],['y'],['z'],2020-03-27 17:34:16.563369
30.083093643188477,29.229167938232422,31.983705520629883,896.1435546875,2.872456759459784,5.636579461607172,149.97532670065902,-33.36754608154297,-15.757804870605469,23.434236526489258,-0.07331018894910812,0.10658594220876694,0.9489555358886719,['x'],['y'],['z'],2020-03-27 17:34:16.638537
30.064029693603516,29.227083206176758,34.623477935791016,896.138671875,3.301235331542263,5.626050298114775,150.34317336859922,-33.966373443603516,-16.1390323638916,23.197420120239258,-0.0641772672533989,0.09905937314033508,1.034493088722229,['x'],['y'],['z'],2020-03-27 17:34:16.717445
30.12122344970703,29.235416412353516,33.4854736328125,896.138427734375,3.3834129659846828,5.677571695684651,150.19021811232597,-34.16978454589844,-16.440277099609375,23.661014556884766,-0.07331018894910812,0.09468910843133926,0.9613840579986572,['x'],['y'],['z'],2020-03-27 17:34:16.792589
30.12122344970703,29.233333587646484,33.4854736328125,896.146484375,3.6539595337732385,5.4936274442602135,150.0470573473225,-34.15279769897461,-16.231332778930664,22.95870018005371,-0.07676588743925095,0.08424901962280273,0.9728378057479858,['x'],['y'],['z'],2020-03-27 17:34:16.870076
30.159351348876953,29.231250762939453,34.84373474121094,896.146484375,3.490064448883728,5.336392647585113,150.25891615499796,-34.50698471069336,-16.189172744750977,23.068370819091797,-0.04986079782247543,0.0905616357922554,0.9650395512580872,['x'],['y'],['z'],2020-03-27 17:34:16.945280
30.12122344970703,29.237499237060547,32.75127410888672,896.1474609375,2.89683242394709,5.699839393039362,150.42001299676187,-34.31443405151367,-16.33761978149414,23.141630172729492,-0.061462074518203735,0.10197287797927856,1.0315687656402588,['x'],['y'],['z'],2020-03-27 17:34:17.020836
30.083093643188477,29.237499237060547,32.487632751464844,896.146240234375,3.419320124225086,6.420740673611643,150.72028177305398,-34.299110412597656,-16.01677131652832,22.869401931762695,-0.0794810801744461,0.09687423706054688,1.030593991279602,['x'],['y'],['z'],2020-03-27 17:34:17.096108
30.159351348876953,29.243749618530273,33.82920837402344,896.143310546875,3.75784372284137,8.039870313535369,151.59783813799555,-34.900428771972656,-15.395145416259766,22.967975616455078,-0.049613963812589645,0.11119899898767471,0.9360396265983582,['x'],['y'],['z'],2020-03-27 17:34:17.171356
30.19748306274414,29.237499237060547,31.479778289794922,896.144775390625,4.80676014254846,8.751410392963326,153.32498807341668,-35.32757568359375,-14.772101402282715,23.330276489257812,-0.07108866423368454,0.12236745655536652,0.8351490497589111,['x'],['y'],['z'],2020-03-27 17:34:17.250240
30.178417205810547,29.254165649414062,33.305259704589844,896.141845703125,6.039351874981416,6.845849086232298,154.26146165013878,-35.88448715209961,-15.415155410766602,23.435810089111328,0.020365456119179726,0.29547855257987976,0.9535858035087585,['x'],['y'],['z'],2020-03-27 17:34:17.325263
30.12122344970703,29.24791717529297,32.36415100097656,896.143798828125,8.034709251843779,5.17461406756466,151.4137918606204,-37.002628326416016,-16.294584274291992,23.333219528198242,-0.13279758393764496,0.15344491600990295,1.256988286972046,['x'],['y'],['z'],2020-03-27 17:34:17.400263
30.12122344970703,29.25,33.11837387084961,896.144287109375,6.560438105819091,3.71791913270853,148.42233292869489,-37.578922271728516,-16.77704429626465,23.82080841064453,-0.1710571050643921,-0.43493029475212097,0.6845445036888123,['x'],['y'],['z'],2020-03-27 17:34:17.479289
30.064029693603516,29.258333206176758,31.629955291748047,896.1474609375,5.132335623489104,2.8593696901232164,145.8754100287105,-36.07679748535156,-16.115604400634766,23.506675720214844,-0.1105823740363121,0.4965108036994934,1.0303502082824707,['x'],['y'],['z'],2020-03-27 17:34:17.554467
30.083093643188477,29.260417938232422,32.44424819946289,896.14990234375,5.572634376823867,3.7963437916454397,141.1810483329174,-35.32502746582031,-15.475322723388672,23.802486419677734,-0.19154445827007294,0.14009131491184235,1.1183247566223145,['x'],['y'],['z'],2020-03-27 17:34:17.629713
30.178417205810547,29.258333206176758,34.54338455200195,896.1455078125,4.600136247984996,3.108794538233742,144.7154390019672,-34.63943099975586,-15.724030494689941,23.967504501342773,-0.12317098677158356,-0.494271844625473,0.7730063796043396,['x'],['y'],['z'],2020-03-27 17:34:17.708521
30.044963836669922,29.266666412353516,33.04829025268555,896.145263671875,4.832093314180037,2.114973626023149,146.47904848717786,-34.993141174316406,-15.384814262390137,23.496564865112305,-0.06368359178304672,0.1952052265405655,1.0015939474105835,['x'],['y'],['z'],2020-03-27 17:34:17.783702
30.044963836669922,29.268749237060547,33.04829025268555,896.155517578125,7.667124692412971,359.9239543212974,140.64664067187726,-35.78883743286133,-15.264193534851074,23.463397979736328,-0.33100658655166626,0.21559982001781464,1.3047529458999634,['x'],['y'],['z'],2020-03-27 17:34:17.858759
30.102157592773438,29.270832061767578,32.404197692871094,896.16015625,6.4198877537390375,0.06496399025893418,142.6939625548319,-35.6795654296875,-15.70228099822998,23.519689559936523,-0.0029620276764035225,-0.22023925185203552,0.6523764729499817,['x'],['y'],['z'],2020-03-27 17:34:17.936256
30.064029693603516,29.260417938232422,31.766782760620117,896.160888671875,6.162969761222184,1.0274941717055792,145.7849100222078,-35.015419006347656,-15.4611177444458,23.500749588012695,-0.18759509921073914,0.18209443986415863,1.168526291847229,['x'],['y'],['z'],2020-03-27 17:34:18.012703
30.178417205810547,29.262500762939453,32.681190490722656,896.162353515625,7.588165144286685,1.461290691672196,146.7734569611621,-35.661338806152344,-15.074339866638184,24.00887107849121,-0.18537355959415436,0.05171481892466545,1.0771400928497314,['x'],['y'],['z'],2020-03-27 17:34:18.087229
30.006834030151367,29.256250381469727,32.98822021484375,896.1640625,7.27296472069529,4.122200164115701,147.96354912214514,-35.68702697753906,-14.219405174255371,23.997732162475586,-0.06072157248854637,-0.015438457019627094,0.8870565295219421,['x'],['y'],['z'],2020-03-27 17:34:18.166163
30.083093643188477,29.260417938232422,35.32096481323242,896.160400390625,2.2506444482714625,4.556965183562284,145.65218578625613,-34.04970169067383,-12.966848373413086,23.034433364868164,0.04170069843530655,0.010197288356721401,0.9331152439117432,['x'],['y'],['z'],2020-03-27 17:34:18.241304
30.064029693603516,29.266666412353516,34.216331481933594,896.16015625,358.13603838729574,4.143587193954303,143.37120313179534,-31.24312973022461,-12.104340553283691,21.578731536865234,0.09503880143165588,0.1364494264125824,1.0515519380569458,['x'],['y'],['z'],2020-03-27 17:34:18.316481
30.12122344970703,29.258333206176758,33.9593620300293,896.16162109375,356.28165568801563,5.060253648970197,142.71005448051645,-28.827287673950195,-10.964076042175293,20.66615867614746,0.021335240453481674,0.07332336157560349,0.9745436906814575,['x'],['y'],['z'],2020-03-27 17:34:18.391532
30.102157592773438,29.264583587646484,33.56556701660156,896.16357421875,356.0828579095805,3.976815745650571,142.17012802662694,-27.28868865966797,-10.537599563598633,20.106481552124023,0.03321509063243866,0.0441882498562336,0.9672328233718872,['x'],['y'],['z'],2020-03-27 17:34:18.468286
30.083093643188477,29.260417938232422,32.797996520996094,896.161865234375,354.9720685137296,2.485828778849335,142.42712072433784,-26.353965759277344,-11.032014846801758,19.344280242919922,0.18207687139511108,-0.32058921456336975,0.8899809122085571,['x'],['y'],['z'],2020-03-27 17:34:18.545262
30.064029693603516,29.258333206176758,33.281898498535156,896.1669921875,353.68147097288346,8.307668370513229,145.83578127114606,-25.400766372680664,-9.742172241210938,18.86644744873047,0.2439005970954895,0.410319447517395,0.9487118124961853,['x'],['y'],['z'],2020-03-27 17:34:18.620481
30.025897979736328,29.262500762939453,34.14624786376953,896.163330078125,355.23701283229485,14.047971938629862,147.686339064491,-25.201555252075195,-6.1841206550598145,18.649017333984375,0.026669051498174667,0.23720835149288177,0.9233673214912415,['x'],['y'],['z'],2020-03-27 17:34:18.699447
30.006834030151367,29.262500762939453,34.95386505126953,896.1591796875,357.6048251203531,13.277708454039075,149.37758952563453,-26.3773136138916,-4.913827896118164,18.70107078552246,-0.014810139313340187,0.22045566141605377,0.9343336820602417,['x'],['y'],['z'],2020-03-27 17:34:18.774503
30.083093643188477,29.262500762939453,31.84354019165039,896.16259765625,357.4691848205126,12.884150392742002,150.20652860406395,-27.4847354888916,-4.797727108001709,19.103242874145508,0.0768553614616394,0.2728988528251648,1.0266947746276855,['x'],['y'],['z'],2020-03-27 17:34:18.849629
30.083093643188477,29.262500762939453,31.84354019165039,896.16015625,358.44937694400807,12.566536351052653,151.68564704996524,-28.195940017700195,-4.79463005065918,19.717500686645508,-0.0466519370675087,0.27217045426368713,0.9053338170051575,['x'],['y'],['z'],2020-03-27 17:34:18.935546
30.083093643188477,29.258333206176758,34.479976654052734,896.162841796875,5.307067657270486,13.138380278933631,155.1376656376247,-30.837783813476562,-5.232242584228516,21.32761001586914,-0.22017739713191986,0.35423436760902405,0.9601655602455139,['x'],['y'],['z'],2020-03-27 17:34:19.014563
30.102157592773438,29.270832061767578,32.697879791259766,896.156982421875,5.949692835520305,12.295832048582954,156.8265118721804,-33.659549713134766,-6.145071983337402,22.18878936767578,-0.020734194666147232,0.18015208840370178,1.1875346899032593,['x'],['y'],['z'],2020-03-27 17:34:19.088755
